* Measurement data measured by REW V5.20.13
* Source: USB-C to 3.5mm Headphone Jack Adapter, USB-C to 3.5mm Headphone Jack Adapter, 0, volume: 0.490
* Format: 256k Log Swept Sine, 1 sweep at -12.0 dBFS with no timing reference
* Dated: 2022. 11. 13 ¿ÀÈÄ 12:02:18
* REW Settings:
*  C-weighting compensation: Off
*  Target level: 75.0 dB
* Note: 
* Measurement: R_Spiral SF
* Smoothing: 1/24 octave
* Frequency Step: 1/48 octave
* Start Frequency: 20.300 Hz
*
* Freq(Hz)	SPL(dB)	Phase(degrees)
20.299999	106.309	-156.6448
20.600000	106.326	-156.8583
20.900000	106.362	-157.2635
21.200001	106.395	-157.7160
21.400000	106.412	-158.0464
21.799999	106.432	-158.7648
22.000000	106.435	-159.1398
22.400000	106.428	-159.8819
22.700001	106.418	-160.4238
23.000000	106.405	-160.9600
23.299999	106.389	-161.4906
23.600000	106.373	-162.0043
24.000000	106.352	-162.6379
24.299999	106.343	-163.0646
24.700001	106.345	-163.5919
25.000000	106.359	-163.9973
25.400000	106.388	-164.6052
25.799999	106.417	-165.3028
26.200001	106.433	-166.0334
26.500000	106.436	-166.5514
26.900000	106.434	-167.1646
27.200001	106.433	-167.5769
27.600000	106.436	-168.1151
28.000000	106.439	-168.7004
28.500000	106.423	-169.4914
29.000000	106.376	-170.1939
29.500000	106.315	-170.6573
30.000000	106.275	-170.9187
30.400000	106.269	-171.1259
30.700001	106.276	-171.3514
31.100000	106.285	-171.7751
31.500000	106.282	-172.2956
32.000000	106.256	-172.9485
32.500000	106.219	-173.4901
33.000000	106.192	-173.9272
33.500000	106.183	-174.3462
34.000000	106.184	-174.8072
34.500000	106.184	-175.2990
35.000000	106.182	-175.7884
35.500000	106.180	-176.2720
36.000000	106.179	-176.7743
36.500000	106.170	-177.3013
37.000000	106.149	-177.8139
37.500000	106.117	-178.2570
38.200001	106.070	-178.7263
38.700001	106.046	-179.0077
39.500000	106.023	-179.5414
40.000000	106.005	-179.9548
40.599998	105.971	179.5349
41.200001	105.930	179.0972
41.799999	105.897	178.7260
42.500000	105.875	178.2551
43.099998	105.854	177.7765
43.700001	105.822	177.3208
44.400002	105.783	176.8963
45.000000	105.759	176.5565
45.500000	105.738	176.2427
46.200001	105.701	175.8147
46.799999	105.669	175.5134
47.500000	105.644	175.1503
48.200001	105.617	174.6917
48.700001	105.589	174.3604
49.400002	105.543	173.9827
50.000000	105.512	173.7046
50.799999	105.478	173.3058
51.500000	105.447	172.9497
52.200001	105.419	172.5945
53.000000	105.386	172.1313
53.799999	105.335	171.6512
54.500000	105.279	171.3066
55.200001	105.226	171.0300
56.000000	105.173	170.7245
57.000000	105.111	170.3087
58.000000	105.051	169.8282
59.000000	104.972	169.2342
60.000000	104.851	168.7995
60.799999	104.761	168.7026
61.500000	104.704	168.6281
62.200001	104.645	168.4756
63.000000	104.560	168.3684
64.000000	104.471	168.4371
65.000000	104.417	168.3075
66.000000	104.330	167.9140
67.000000	104.201	167.6077
68.000000	104.056	167.4769
69.000000	103.903	167.4958
70.000000	103.744	167.6552
71.000000	103.571	167.9207
72.000000	103.347	168.4406
73.000000	103.080	169.8454
74.000000	102.897	172.3655
75.000000	102.913	175.5685
76.199997	103.310	179.1681
77.500000	104.002	-179.6679
78.800003	104.522	178.7982
80.000000	104.794	176.6518
81.199997	104.923	174.4726
82.500000	104.943	172.3723
83.800003	104.885	170.7665
85.000000	104.813	169.7286
86.199997	104.750	168.9583
87.500000	104.694	168.2571
88.500000	104.654	167.7529
90.000000	104.588	167.0507
91.199997	104.528	166.5328
92.500000	104.448	166.0424
93.800003	104.359	165.7120
95.000000	104.281	165.5111
96.199997	104.206	165.3489
97.500000	104.130	165.1940
98.800003	104.062	165.0237
100.000000	104.008	164.8083
101.500000	103.950	164.4369
103.000000	103.894	164.0181
104.400002	103.845	163.6786
106.000000	103.788	163.3954
107.500000	103.729	163.2288
109.000000	103.658	163.1221
110.599998	103.574	163.0034
112.000000	103.501	162.8445
113.800003	103.416	162.5970
115.000000	103.367	162.4821
117.199997	103.288	162.4742
118.000000	103.258	162.5515
120.599998	103.172	162.8167
122.000000	103.120	162.7550
124.099998	103.036	162.5610
125.000000	103.009	162.4817
126.500000	102.976	162.3611
128.000000	102.940	162.3012
131.500000	102.821	162.4155
132.000000	102.802	162.4241
134.000000	102.734	162.3795
136.000000	102.680	162.2623
138.000000	102.634	162.1851
140.000000	102.581	162.2045
143.000000	102.490	162.2682
145.000000	102.430	162.2846
147.500000	102.367	162.2642
150.000000	102.299	162.2341
152.500000	102.234	162.2227
155.000000	102.176	162.2350
157.500000	102.117	162.3657
160.000000	102.051	162.5634
162.500000	101.982	162.6801
165.000000	101.910	162.6922
167.500000	101.848	162.7895
170.000000	101.801	162.9361
172.500000	101.753	163.0408
175.000000	101.692	163.1405
177.500000	101.629	163.2906
180.000000	101.572	163.4436
182.500000	101.519	163.5564
185.000000	101.468	163.6772
187.500000	101.420	163.8309
190.000000	101.374	163.9855
192.500000	101.327	164.1282
195.000000	101.279	164.2759
197.500000	101.233	164.4234
200.000000	101.190	164.5763
203.000000	101.138	164.7902
206.000000	101.086	165.0159
209.000000	101.035	165.2017
212.000000	100.992	165.3733
214.000000	100.966	165.4992
218.000000	100.906	165.7827
220.000000	100.874	165.9216
224.000000	100.813	166.1970
227.000000	100.772	166.4021
230.000000	100.733	166.6083
233.000000	100.690	166.8052
236.000000	100.642	166.9214
240.000000	100.578	167.0787
243.000000	100.545	167.3735
247.000000	100.498	167.7886
250.000000	100.453	168.0500
254.000000	100.399	168.3691
258.000000	100.351	168.6713
262.000000	100.308	168.9792
265.000000	100.277	169.1967
269.000000	100.236	169.4997
272.000000	100.212	169.7692
276.000000	100.182	170.1088
280.000000	100.141	170.4072
285.000000	100.082	170.7710
290.000000	100.037	171.1533
295.000000	99.996	171.4945
300.000000	99.955	171.8834
304.000000	99.925	172.2112
307.000000	99.902	172.4544
311.000000	99.872	172.7703
315.000000	99.845	173.0775
320.000000	99.812	173.4701
325.000000	99.782	173.8669
330.000000	99.749	174.2660
335.000000	99.712	174.6371
340.000000	99.681	175.0198
345.000000	99.650	175.4211
350.000000	99.616	175.7974
355.000000	99.583	176.1616
360.000000	99.553	176.5322
365.000000	99.523	176.9406
370.000000	99.494	177.3637
375.000000	99.466	177.7632
382.000000	99.426	178.2907
387.000000	99.397	178.6736
395.000000	99.353	179.2976
400.000000	99.328	179.6840
406.000000	99.294	-179.8498
412.000000	99.264	-179.3982
418.000000	99.243	-178.9740
425.000000	99.211	-178.4358
431.000000	99.181	-177.9616
437.000000	99.155	-177.4892
444.000000	99.131	-176.9454
450.000000	99.112	-176.4891
455.000000	99.096	-176.1109
462.000000	99.074	-175.5933
468.000000	99.056	-175.1446
475.000000	99.035	-174.5948
482.000000	99.015	-174.0487
487.000000	99.003	-173.6749
494.000000	98.987	-173.1431
500.000000	98.973	-172.6777
508.000000	98.957	-172.0935
515.000000	98.944	-171.5789
522.000000	98.931	-171.0378
530.000000	98.916	-170.4151
538.000000	98.901	-169.8030
545.000000	98.888	-169.2625
552.000000	98.876	-168.7220
560.000000	98.864	-168.1115
570.000000	98.850	-167.3551
580.000000	98.839	-166.5870
590.000000	98.831	-165.8187
600.000000	98.822	-165.0523
608.000000	98.817	-164.4301
615.000000	98.812	-163.8837
622.000000	98.808	-163.3420
630.000000	98.804	-162.7258
640.000000	98.801	-161.9477
650.000000	98.799	-161.1606
660.000000	98.798	-160.3791
670.000000	98.800	-159.6001
680.000000	98.804	-158.8040
690.000000	98.808	-158.0050
700.000000	98.814	-157.2095
710.000000	98.821	-156.4152
720.000000	98.831	-155.6188
730.000000	98.842	-154.8209
740.000000	98.855	-154.0124
750.000000	98.870	-153.2007
762.000000	98.893	-152.2321
775.000000	98.920	-151.1851
788.000000	98.953	-150.1475
800.000000	98.987	-149.1945
812.000000	99.024	-148.2444
825.000000	99.068	-147.2197
838.000000	99.118	-146.2060
850.000000	99.168	-145.2851
862.000000	99.221	-144.3744
875.000000	99.284	-143.3988
885.000000	99.335	-142.6626
900.000000	99.417	-141.5705
912.000000	99.486	-140.7232
925.000000	99.565	-139.8374
938.000000	99.647	-138.9805
950.000000	99.725	-138.2174
962.000000	99.808	-137.4784
975.000000	99.900	-136.7054
988.000000	99.994	-135.9671
1000.000000	100.082	-135.3157
1015.000000	100.193	-134.5460
1030.000000	100.304	-133.8234
1044.000000	100.407	-133.1880
1060.000000	100.525	-132.5067
1075.000000	100.633	-131.9067
1090.000000	100.741	-131.3446
1106.000000	100.861	-130.7849
1120.000000	100.967	-130.3237
1138.000000	101.099	-129.7679
1150.000000	101.184	-129.4171
1172.000000	101.335	-128.8000
1180.000000	101.388	-128.5824
1206.000000	101.549	-127.8965
1220.000000	101.631	-127.5431
1241.000000	101.746	-127.0223
1250.000000	101.792	-126.7925
1265.000000	101.865	-126.3937
1280.000000	101.932	-125.9746
1315.000000	102.066	-124.8732
1320.000000	102.083	-124.6947
1340.000000	102.142	-123.9045
1360.000000	102.192	-122.9475
1380.000000	102.248	-121.7518
1400.000000	102.333	-120.2582
1430.000000	102.576	-117.5485
1450.000000	102.853	-115.7727
1475.000000	103.310	-114.2330
1500.000000	103.781	-113.7768
1525.000000	104.169	-114.0913
1550.000000	104.455	-114.6469
1575.000000	104.673	-115.1093
1600.000000	104.855	-115.3759
1625.000000	105.022	-115.4654
1650.000000	105.185	-115.4292
1675.000000	105.350	-115.3099
1700.000000	105.520	-115.1418
1725.000000	105.694	-114.9490
1750.000000	105.871	-114.7491
1775.000000	106.054	-114.5571
1800.000000	106.242	-114.3837
1825.000000	106.435	-114.2387
1850.000000	106.631	-114.1279
1875.000000	106.831	-114.0559
1900.000000	107.034	-114.0280
1925.000000	107.239	-114.0511
1950.000000	107.445	-114.1283
1975.000000	107.652	-114.2624
2000.000000	107.860	-114.4568
2030.000000	108.108	-114.7724
2060.000000	108.353	-115.1846
2090.000000	108.591	-115.6929
2120.000000	108.822	-116.2861
2140.000000	108.970	-116.7239
2180.000000	109.251	-117.6728
2200.000000	109.382	-118.1667
2240.000000	109.631	-119.1457
2270.000000	109.813	-119.8502
2300.000000	109.999	-120.5206
2330.000000	110.198	-121.1742
2360.000000	110.421	-121.8859
2400.000000	110.755	-123.1571
2430.000000	111.011	-124.5093
2470.000000	111.313	-126.8697
2500.000000	111.484	-128.9374
2540.000000	111.631	-131.8483
2580.000000	111.693	-134.7334
2620.000000	111.685	-137.4613
2650.000000	111.644	-139.3695
2690.000000	111.551	-141.7152
2720.000000	111.457	-143.3164
2760.000000	111.308	-145.2392
2800.000000	111.138	-146.9305
2850.000000	110.903	-148.7261
2900.000000	110.651	-150.1837
2950.000000	110.391	-151.3206
3000.000000	110.130	-152.1639
3040.000000	109.923	-152.6443
3070.000000	109.771	-152.9017
3110.000000	109.574	-153.1202
3150.000000	109.384	-153.2081
3200.000000	109.158	-153.1543
3250.000000	108.945	-152.9401
3300.000000	108.745	-152.5851
3350.000000	108.561	-152.1053
3400.000000	108.393	-151.5170
3450.000000	108.245	-150.8346
3500.000000	108.118	-150.0726
3550.000000	108.007	-149.2415
3600.000000	107.910	-148.3480
3650.000000	107.827	-147.3978
3700.000000	107.758	-146.3961
3750.000000	107.702	-145.3469
3820.000000	107.646	-143.8040
3870.000000	107.620	-142.6581
3950.000000	107.604	-140.7723
4000.000000	107.615	-139.5766
4060.000000	107.647	-138.1368
4120.000000	107.701	-136.6992
4180.000000	107.777	-135.2730
4250.000000	107.893	-133.6341
4310.000000	108.012	-132.2620
4370.000000	108.145	-130.9310
4440.000000	108.324	-129.4570
4500.000000	108.502	-128.2766
4550.000000	108.668	-127.3630
4620.000000	108.927	-126.2129
4680.000000	109.173	-125.3661
4750.000000	109.487	-124.5644
4820.000000	109.827	-123.9879
4870.000000	110.084	-123.7269
4940.000000	110.463	-123.6015
5000.000000	110.805	-123.7511
5080.000000	111.283	-124.3862
5150.000000	111.712	-125.4071
5220.000000	112.142	-126.9208
5300.000000	112.613	-129.3216
5380.000000	113.033	-132.4638
5450.000000	113.333	-135.7769
5520.000000	113.550	-139.5335
5600.000000	113.674	-144.1990
5700.000000	113.623	-150.1678
5800.000000	113.356	-155.7489
5900.000000	112.920	-160.5051
6000.000000	112.374	-164.2230
6080.000000	111.899	-166.4210
6150.000000	111.478	-167.8117
6220.000000	111.068	-168.7560
6300.000000	110.624	-169.3672
6400.000000	110.122	-169.5595
6500.000000	109.689	-169.2561
6600.000000	109.333	-168.5877
6700.000000	109.061	-167.6778
6800.000000	108.881	-166.6328
6900.000000	108.810	-165.5415
7000.000000	108.852	-164.4884
7100.000000	109.001	-163.5820
7200.000000	109.254	-162.9630
7300.000000	109.612	-162.7759
7400.000000	110.079	-163.1902
7500.000000	110.658	-164.4607
7620.000000	111.491	-167.6157
7750.000000	112.458	-173.8835
7880.000000	113.200	176.0208
8000.000000	113.423	163.4968
8120.000000	113.014	149.7468
8250.000000	111.860	136.5261
8380.000000	110.210	127.0552
8500.000000	108.523	121.7155
8620.000000	106.869	118.8832
8750.000000	105.210	117.7042
8850.000000	104.041	117.7007
9000.000000	102.463	118.7219
9120.000000	101.347	120.1548
9250.000000	100.269	122.1154
9380.000000	99.316	124.3686
9500.000000	98.535	126.6207
9620.000000	97.841	128.9706
9750.000000	97.179	131.5873
9880.000000	96.607	134.2387
10000.000000	96.151	136.6755
10150.000000	95.674	139.6953
10300.000000	95.293	142.6644
10440.000000	95.022	145.3387
10600.000000	94.815	148.2257
10750.000000	94.716	150.7199
10900.000000	94.710	152.9807
11060.000000	94.810	155.0387
11200.000000	94.992	156.4391
11380.000000	95.359	157.5328
11500.000000	95.689	157.7142
11720.000000	96.473	156.4758
11800.000000	96.810	155.3630
12060.000000	97.995	148.3278
12200.000000	98.566	141.8437
12410.000000	99.042	128.3149
12500.000000	99.033	121.4440
12650.000000	98.675	109.5284
12800.000000	97.907	98.2597
13150.000000	95.118	78.8664
13200.000000	94.679	76.9011
13400.000000	92.980	70.4150
13600.000000	91.453	65.3064
13800.000000	90.136	60.8343
14000.000000	89.044	56.5752
14300.000000	87.891	49.7371
14500.000000	87.511	44.1848
14750.000000	87.564	35.1431
15000.000000	88.328	22.3198
15250.000000	89.789	2.6161
15500.000000	91.282	-28.5959
15750.000000	91.543	-70.9389
16000.000000	89.958	-112.6288
16250.000000	87.174	-144.3492
16500.000000	84.289	-167.9244
16750.000000	81.907	172.1533
17000.000000	80.061	153.2580
17250.000000	78.614	134.0099
17500.000000	77.441	113.5816
17750.000000	76.426	91.3239
18000.000000	75.495	66.6971
18250.000000	74.613	39.0207
18500.000000	73.724	7.4448
18750.000000	72.783	-29.2923
19000.000000	71.737	-72.7170
19250.000000	70.451	-124.3384
19500.000000	68.794	175.2987
19750.000000	66.789	112.7085
20000.000000	65.210	73.1642
