* Measurement data measured by REW V5.20.13
* Source: USB-C to 3.5mm Headphone Jack Adapter, USB-C to 3.5mm Headphone Jack Adapter, 0, volume: 0.490
* Format: 256k Log Swept Sine, 1 sweep at -12.0 dBFS with no timing reference
* Dated: 2022. 11. 13 ¿ÀÀü 11:59:35
* REW Settings:
*  C-weighting compensation: Off
*  Target level: 75.0 dB
* Note: 
* Measurement: L_Sprial SF
* Smoothing: 1/24 octave
* Frequency Step: 1/48 octave
* Start Frequency: 20.300 Hz
*
* Freq(Hz)	SPL(dB)	Phase(degrees)
20.299999	105.051	-151.1844
20.600000	105.065	-151.3980
20.900000	105.097	-151.7961
21.200001	105.131	-152.2261
21.400000	105.152	-152.5433
21.799999	105.186	-153.2570
22.000000	105.196	-153.6422
22.400000	105.203	-154.4105
22.700001	105.201	-154.9491
23.000000	105.200	-155.4478
23.299999	105.203	-155.9253
23.600000	105.212	-156.4034
24.000000	105.228	-157.0639
24.299999	105.239	-157.5701
24.700001	105.249	-158.2209
25.000000	105.254	-158.6615
25.400000	105.264	-159.1720
25.799999	105.282	-159.6275
26.200001	105.308	-160.0867
26.500000	105.326	-160.4544
26.900000	105.341	-160.9652
27.200001	105.344	-161.3358
27.600000	105.339	-161.7757
28.000000	105.333	-162.1463
28.500000	105.336	-162.5768
29.000000	105.346	-163.0768
29.500000	105.352	-163.6778
30.000000	105.345	-164.3161
30.400000	105.335	-164.8067
30.700001	105.329	-165.1607
31.100000	105.326	-165.6388
31.500000	105.326	-166.1517
32.000000	105.323	-166.8496
32.500000	105.307	-167.5498
33.000000	105.283	-168.1554
33.500000	105.265	-168.6251
34.000000	105.264	-169.0053
34.500000	105.276	-169.3842
35.000000	105.293	-169.8100
35.500000	105.304	-170.2689
36.000000	105.307	-170.7209
36.500000	105.303	-171.1479
37.000000	105.294	-171.5537
37.500000	105.280	-171.9414
38.200001	105.256	-172.4551
38.700001	105.237	-172.8226
39.500000	105.205	-173.4609
40.000000	105.179	-173.8644
40.599998	105.149	-174.3098
41.200001	105.127	-174.7344
41.799999	105.113	-175.1925
42.500000	105.096	-175.7717
43.099998	105.079	-176.2641
43.700001	105.060	-176.7363
44.400002	105.031	-177.2448
45.000000	105.004	-177.6165
45.500000	104.985	-177.8921
46.200001	104.966	-178.2949
46.799999	104.947	-178.6869
47.500000	104.917	-179.1461
48.200001	104.885	-179.5615
48.700001	104.866	-179.8462
49.400002	104.840	179.7469
50.000000	104.814	179.4131
50.799999	104.779	179.0475
51.500000	104.757	178.7697
52.200001	104.739	178.4323
53.000000	104.699	177.9841
53.799999	104.636	177.6183
54.500000	104.581	177.3418
55.200001	104.523	176.9955
56.000000	104.443	176.5330
57.000000	104.325	175.8936
58.000000	104.165	175.3155
59.000000	104.006	175.3477
60.000000	103.961	175.6747
60.799999	103.978	175.7097
61.500000	103.993	175.6522
62.200001	104.007	175.6501
63.000000	104.038	175.7000
64.000000	104.089	175.5000
65.000000	104.060	174.9272
66.000000	103.931	174.5377
67.000000	103.760	174.3291
68.000000	103.524	174.1888
69.000000	103.231	174.5755
70.000000	102.953	175.6265
71.000000	102.732	177.4210
72.000000	102.664	-179.8264
73.000000	102.904	-176.7013
74.000000	103.425	-174.7971
75.000000	103.952	-174.9877
76.199997	104.351	-176.7301
77.500000	104.550	-178.8146
78.800003	104.609	179.3156
80.000000	104.596	177.8583
81.199997	104.558	176.6686
82.500000	104.515	175.6527
83.800003	104.473	174.9122
85.000000	104.432	174.4608
86.199997	104.400	174.2416
87.500000	104.408	173.7860
88.500000	104.371	173.0503
90.000000	104.238	172.2477
91.199997	104.155	171.8220
92.500000	104.075	171.4166
93.800003	104.008	171.2312
95.000000	103.973	171.0592
96.199997	103.922	170.7427
97.500000	103.844	170.4805
98.800003	103.783	170.2410
100.000000	103.743	169.9590
101.500000	103.704	169.5837
103.000000	103.670	169.3239
104.400002	103.638	169.2137
106.000000	103.598	169.1447
107.500000	103.553	169.0429
109.000000	103.505	168.8725
110.599998	103.456	168.6633
112.000000	103.420	168.4555
113.800003	103.363	168.1976
115.000000	103.324	168.0886
117.199997	103.273	167.8917
118.000000	103.260	167.7583
120.599998	103.170	167.3251
122.000000	103.117	167.3507
124.099998	103.058	167.4125
125.000000	103.032	167.4075
126.500000	102.987	167.3600
128.000000	102.941	167.2860
131.500000	102.844	167.1360
132.000000	102.831	167.1173
134.000000	102.780	167.0666
136.000000	102.732	167.0310
138.000000	102.684	166.9951
140.000000	102.634	166.9715
143.000000	102.564	166.9955
145.000000	102.529	166.9799
147.500000	102.488	166.8550
150.000000	102.434	166.7448
152.500000	102.381	166.7652
155.000000	102.328	166.8134
157.500000	102.273	166.7505
160.000000	102.205	166.6248
162.500000	102.143	166.6320
165.000000	102.086	166.7069
167.500000	102.022	166.7881
170.000000	101.959	166.8375
172.500000	101.906	166.9039
175.000000	101.866	166.9656
177.500000	101.824	167.0153
180.000000	101.775	167.0927
182.500000	101.722	167.1863
185.000000	101.668	167.2688
187.500000	101.617	167.3326
190.000000	101.572	167.4027
192.500000	101.532	167.5067
195.000000	101.492	167.6371
197.500000	101.450	167.7585
200.000000	101.408	167.8712
203.000000	101.361	168.0058
206.000000	101.314	168.1457
209.000000	101.270	168.2873
212.000000	101.227	168.4429
214.000000	101.197	168.5602
218.000000	101.138	168.7744
220.000000	101.114	168.8801
224.000000	101.065	169.0886
227.000000	101.025	169.2121
230.000000	100.989	169.3522
233.000000	100.955	169.5791
236.000000	100.908	169.8597
240.000000	100.826	170.1721
243.000000	100.787	170.2303
247.000000	100.758	170.3653
250.000000	100.735	170.6157
254.000000	100.691	170.9137
258.000000	100.640	171.1465
262.000000	100.585	171.3887
265.000000	100.548	171.5710
269.000000	100.505	171.8323
272.000000	100.477	172.0408
276.000000	100.442	172.3181
280.000000	100.407	172.5741
285.000000	100.367	172.8595
290.000000	100.326	173.1849
295.000000	100.283	173.4681
300.000000	100.245	173.8343
304.000000	100.220	174.1847
307.000000	100.199	174.4192
311.000000	100.170	174.6951
315.000000	100.142	174.9577
320.000000	100.111	175.2958
325.000000	100.085	175.6391
330.000000	100.058	175.9731
335.000000	100.027	176.3055
340.000000	99.996	176.6399
345.000000	99.967	176.9996
350.000000	99.934	177.3711
355.000000	99.900	177.7402
360.000000	99.868	178.0854
365.000000	99.841	178.4346
370.000000	99.815	178.7953
375.000000	99.789	179.1421
382.000000	99.749	179.6105
387.000000	99.721	179.9492
395.000000	99.673	-179.4530
400.000000	99.644	-179.0797
406.000000	99.612	-178.6616
412.000000	99.583	-178.2534
418.000000	99.553	-177.8352
425.000000	99.522	-177.3221
431.000000	99.498	-176.8864
437.000000	99.478	-176.4603
444.000000	99.453	-175.9718
450.000000	99.431	-175.5398
455.000000	99.414	-175.1873
462.000000	99.391	-174.6943
468.000000	99.371	-174.2592
475.000000	99.349	-173.7495
482.000000	99.331	-173.2656
487.000000	99.318	-172.9263
494.000000	99.300	-172.4339
500.000000	99.284	-171.9821
508.000000	99.264	-171.3837
515.000000	99.249	-170.8854
522.000000	99.237	-170.4029
530.000000	99.223	-169.8382
538.000000	99.206	-169.2393
545.000000	99.193	-168.7376
552.000000	99.180	-168.2523
560.000000	99.170	-167.6733
570.000000	99.158	-166.9260
580.000000	99.144	-166.2011
590.000000	99.134	-165.4694
600.000000	99.124	-164.7222
608.000000	99.117	-164.1228
615.000000	99.111	-163.6060
622.000000	99.105	-163.0896
630.000000	99.099	-162.4872
640.000000	99.093	-161.7314
650.000000	99.089	-160.9779
660.000000	99.088	-160.2132
670.000000	99.091	-159.4560
680.000000	99.095	-158.6983
690.000000	99.099	-157.9309
700.000000	99.100	-157.1562
710.000000	99.103	-156.3861
720.000000	99.111	-155.6230
730.000000	99.120	-154.8422
740.000000	99.129	-154.0573
750.000000	99.143	-153.2807
762.000000	99.164	-152.3333
775.000000	99.187	-151.3176
788.000000	99.214	-150.3074
800.000000	99.246	-149.3683
812.000000	99.282	-148.4271
825.000000	99.324	-147.4290
838.000000	99.370	-146.4371
850.000000	99.416	-145.5297
862.000000	99.467	-144.6297
875.000000	99.525	-143.6626
885.000000	99.572	-142.9358
900.000000	99.649	-141.8726
912.000000	99.714	-141.0422
925.000000	99.791	-140.1596
938.000000	99.871	-139.3036
950.000000	99.947	-138.5431
962.000000	100.025	-137.8067
975.000000	100.111	-137.0360
988.000000	100.200	-136.2946
1000.000000	100.284	-135.6378
1015.000000	100.390	-134.8553
1030.000000	100.499	-134.1103
1044.000000	100.603	-133.4506
1060.000000	100.722	-132.7582
1075.000000	100.832	-132.1750
1090.000000	100.940	-131.6355
1106.000000	101.059	-131.0928
1120.000000	101.163	-130.6433
1138.000000	101.292	-130.0903
1150.000000	101.375	-129.7372
1172.000000	101.519	-129.1316
1180.000000	101.568	-128.9190
1206.000000	101.719	-128.2324
1220.000000	101.794	-127.8679
1241.000000	101.898	-127.3069
1250.000000	101.939	-127.0531
1265.000000	102.003	-126.6087
1280.000000	102.059	-126.1264
1315.000000	102.168	-124.7351
1320.000000	102.182	-124.4919
1340.000000	102.238	-123.3582
1360.000000	102.308	-121.9082
1380.000000	102.433	-120.1502
1400.000000	102.653	-118.2788
1430.000000	103.167	-116.0950
1450.000000	103.552	-115.5508
1475.000000	103.965	-115.7537
1500.000000	104.266	-116.3268
1525.000000	104.486	-116.8024
1550.000000	104.668	-117.0467
1575.000000	104.834	-117.1311
1600.000000	104.991	-117.1187
1625.000000	105.146	-117.0221
1650.000000	105.305	-116.8506
1675.000000	105.469	-116.6357
1700.000000	105.636	-116.4025
1725.000000	105.808	-116.1618
1750.000000	105.983	-115.9293
1775.000000	106.163	-115.7181
1800.000000	106.348	-115.5359
1825.000000	106.537	-115.3801
1850.000000	106.728	-115.2592
1875.000000	106.924	-115.1814
1900.000000	107.121	-115.1510
1925.000000	107.320	-115.1723
1950.000000	107.520	-115.2477
1975.000000	107.721	-115.3796
2000.000000	107.921	-115.5727
2030.000000	108.159	-115.8864
2060.000000	108.392	-116.2867
2090.000000	108.619	-116.7726
2120.000000	108.838	-117.3354
2140.000000	108.978	-117.7479
2180.000000	109.239	-118.6340
2200.000000	109.360	-119.0822
2240.000000	109.585	-119.9094
2270.000000	109.752	-120.4174
2300.000000	109.936	-120.8233
2330.000000	110.157	-121.2117
2360.000000	110.421	-121.7674
2400.000000	110.810	-123.1071
2430.000000	111.086	-124.6474
2470.000000	111.382	-127.2487
2500.000000	111.538	-129.4133
2540.000000	111.663	-132.3453
2580.000000	111.709	-135.1808
2620.000000	111.693	-137.8376
2650.000000	111.647	-139.6932
2690.000000	111.551	-141.9730
2720.000000	111.457	-143.5287
2760.000000	111.308	-145.3969
2800.000000	111.138	-147.0367
2850.000000	110.905	-148.7705
2900.000000	110.657	-150.1784
2950.000000	110.402	-151.2791
3000.000000	110.144	-152.0911
3040.000000	109.940	-152.5557
3070.000000	109.790	-152.8061
3110.000000	109.595	-153.0187
3150.000000	109.406	-153.0987
3200.000000	109.180	-153.0302
3250.000000	108.967	-152.7984
3300.000000	108.769	-152.4233
3350.000000	108.586	-151.9273
3400.000000	108.420	-151.3270
3450.000000	108.273	-150.6375
3500.000000	108.146	-149.8690
3550.000000	108.036	-149.0320
3600.000000	107.939	-148.1359
3650.000000	107.854	-147.1833
3700.000000	107.781	-146.1761
3750.000000	107.722	-145.1141
3820.000000	107.661	-143.5439
3870.000000	107.632	-142.3721
3950.000000	107.615	-140.4467
4000.000000	107.623	-139.2298
4060.000000	107.652	-137.7696
4120.000000	107.701	-136.3149
4180.000000	107.772	-134.8713
4250.000000	107.879	-133.2069
4310.000000	107.989	-131.8024
4370.000000	108.113	-130.4289
4440.000000	108.278	-128.8879
4500.000000	108.443	-127.6313
4550.000000	108.599	-126.6402
4620.000000	108.845	-125.3567
4680.000000	109.082	-124.3755
4750.000000	109.387	-123.3971
4820.000000	109.720	-122.6291
4870.000000	109.973	-122.2286
4940.000000	110.347	-121.8993
5000.000000	110.684	-121.8557
5080.000000	111.156	-122.1760
5150.000000	111.586	-122.8522
5220.000000	112.026	-123.9596
5300.000000	112.528	-125.8357
5380.000000	113.004	-128.4386
5450.000000	113.376	-131.3389
5520.000000	113.681	-134.7895
5600.000000	113.916	-139.2723
5700.000000	114.011	-145.3019
5800.000000	113.876	-151.2562
5900.000000	113.540	-156.5978
6000.000000	113.058	-160.9814
6080.000000	112.612	-163.7061
6150.000000	112.202	-165.5294
6220.000000	111.792	-166.8623
6300.000000	111.341	-167.8501
6400.000000	110.824	-168.4296
6500.000000	110.372	-168.4434
6600.000000	109.994	-168.0426
6700.000000	109.698	-167.3524
6800.000000	109.493	-166.4742
6900.000000	109.397	-165.5040
7000.000000	109.418	-164.5462
7100.000000	109.545	-163.7163
7200.000000	109.776	-163.1504
7300.000000	110.115	-162.9949
7400.000000	110.564	-163.4267
7500.000000	111.127	-164.6941
7620.000000	111.942	-167.8216
7750.000000	112.889	-174.0357
7880.000000	113.614	176.0034
8000.000000	113.834	163.6990
8120.000000	113.443	150.1637
8250.000000	112.327	137.0012
8380.000000	110.716	127.3941
8500.000000	109.054	121.8437
8620.000000	107.404	118.7976
8750.000000	105.731	117.4872
8850.000000	104.551	117.4515
9000.000000	102.962	118.4530
9120.000000	101.838	119.8698
9250.000000	100.755	121.8232
9380.000000	99.797	124.0894
9500.000000	99.014	126.3541
9620.000000	98.321	128.7208
9750.000000	97.664	131.3551
9880.000000	97.098	134.0072
10000.000000	96.651	136.4409
10150.000000	96.183	139.4435
10300.000000	95.815	142.3679
10440.000000	95.556	144.9807
10600.000000	95.362	147.7805
10750.000000	95.278	150.1855
10900.000000	95.289	152.3182
11060.000000	95.405	154.2006
11200.000000	95.601	155.4342
11380.000000	95.990	156.2753
11500.000000	96.337	156.2279
11720.000000	97.151	154.3867
11800.000000	97.493	152.9796
12060.000000	98.637	144.6800
12200.000000	99.130	137.4045
12410.000000	99.404	123.0048
12500.000000	99.287	116.0348
12650.000000	98.756	104.4070
12800.000000	97.847	93.8566
13150.000000	94.917	76.3863
13200.000000	94.475	74.6481
13400.000000	92.782	68.9687
13600.000000	91.292	64.5423
13800.000000	90.043	60.5579
14000.000000	89.031	56.4926
14300.000000	87.967	49.6346
14500.000000	87.624	44.0323
14750.000000	87.707	34.9370
15000.000000	88.487	22.0353
15250.000000	89.959	2.2272
15500.000000	91.449	-29.1080
15750.000000	91.682	-71.4911
16000.000000	90.062	-112.9667
16250.000000	87.264	-144.4250
16500.000000	84.386	-167.8553
16750.000000	82.012	172.3354
17000.000000	80.163	153.5800
17250.000000	78.700	134.4695
17500.000000	77.527	114.1808
17750.000000	76.533	92.0576
18000.000000	75.619	67.3739
18250.000000	74.725	39.4683
18500.000000	73.807	7.6074
18750.000000	72.800	-29.2502
19000.000000	71.661	-72.3751
19250.000000	70.325	-123.3656
19500.000000	68.659	176.8518
19750.000000	66.677	114.6423
20000.000000	65.144	75.3313
