* Measurement data measured by REW V5.20.9
* Source: Mic in at rear panel (Pink)(Realtek(R) Audio), MICROPHONE (마스), L, volume: 0.500
* Format: 256k Log Swept Sine, 1 sweep at -12.0 dBFS with no timing reference
* Dated: 2022. 9. 24 오후 12:05:19
* REW Settings:
*  C-weighting compensation: Off
*  Target level: 75.0 dB
* Note: 
* Measurement: R_Final
* Smoothing: 1/24 octave
* Frequency Step: 1/48 octave
* Start Frequency: 20.300 Hz
*
* Freq(Hz)	SPL(dB)	Phase(degrees)
20.299999	69.149	39.2312
20.600000	69.176	38.9696
20.900000	69.230	38.4835
21.200001	69.280	37.9643
21.400000	69.307	37.5916
21.799999	69.343	36.7900
22.000000	69.351	36.3790
22.400000	69.354	35.6001
22.700001	69.353	35.0707
23.000000	69.358	34.5652
23.299999	69.370	34.0420
23.600000	69.389	33.4718
24.000000	69.417	32.6225
24.299999	69.435	31.9398
24.700001	69.453	31.0216
25.000000	69.463	30.3617
25.400000	69.476	29.5422
25.799999	69.494	28.7881
26.200001	69.518	28.0856
26.500000	69.539	27.5857
26.900000	69.571	26.9442
27.200001	69.597	26.4679
27.600000	69.633	25.8157
28.000000	69.664	25.1294
28.500000	69.687	24.2604
29.000000	69.690	23.4832
29.500000	69.688	22.8550
30.000000	69.701	22.2975
30.400000	69.721	21.8085
30.700001	69.735	21.3931
31.100000	69.747	20.7983
31.500000	69.750	20.2079
32.000000	69.747	19.5319
32.500000	69.752	18.9002
33.000000	69.766	18.2448
33.500000	69.782	17.5562
34.000000	69.796	16.8808
34.500000	69.812	16.2410
35.000000	69.832	15.6105
35.500000	69.852	14.9662
36.000000	69.868	14.3230
36.500000	69.879	13.7054
37.000000	69.885	13.1262
37.500000	69.886	12.6021
38.200001	69.890	11.9876
38.700001	69.905	11.5750
39.500000	69.942	10.7038
40.000000	69.944	10.0335
40.599998	69.917	9.2960
41.200001	69.883	8.7665
41.799999	69.869	8.3552
42.500000	69.878	7.8211
43.099998	69.892	7.2704
43.700001	69.900	6.6786
44.400002	69.901	6.0008
45.000000	69.898	5.4777
45.500000	69.900	5.0801
46.200001	69.913	4.5146
46.799999	69.924	3.9819
47.500000	69.928	3.3559
48.200001	69.928	2.7868
48.700001	69.931	2.4056
49.400002	69.935	1.8714
50.000000	69.935	1.4150
50.799999	69.930	0.8576
51.500000	69.929	0.4276
52.200001	69.938	-0.0345
53.000000	69.940	-0.7006
53.799999	69.909	-1.3557
54.500000	69.877	-1.7328
55.200001	69.877	-2.0546
56.000000	69.898	-2.6605
57.000000	69.887	-3.5790
58.000000	69.879	-4.2479
59.000000	69.905	-4.9986
60.000000	69.913	-5.8230
60.799999	69.920	-6.4022
61.500000	69.925	-6.9350
62.200001	69.912	-7.4633
63.000000	69.877	-7.8619
64.000000	69.866	-8.0465
65.000000	69.908	-8.4921
66.000000	69.908	-9.3603
67.000000	69.844	-10.0342
68.000000	69.801	-10.3546
69.000000	69.809	-10.7408
70.000000	69.821	-11.3714
71.000000	69.807	-12.0191
72.000000	69.787	-12.4891
73.000000	69.782	-12.8929
74.000000	69.778	-13.3438
75.000000	69.764	-13.7858
76.199997	69.756	-14.3220
77.500000	69.751	-15.0958
78.800003	69.734	-16.0025
80.000000	69.699	-16.8417
81.199997	69.651	-17.3926
82.500000	69.652	-17.6537
83.800003	69.699	-18.1630
85.000000	69.714	-18.8642
86.199997	69.693	-19.6272
87.500000	69.639	-20.3281
88.500000	69.605	-20.7609
90.000000	69.580	-21.4516
91.199997	69.556	-22.0683
92.500000	69.522	-22.5569
93.800003	69.508	-22.9884
95.000000	69.483	-23.4672
96.199997	69.442	-23.8983
97.500000	69.399	-24.3207
98.800003	69.361	-24.7980
100.000000	69.318	-25.2697
101.500000	69.257	-25.7357
103.000000	69.216	-26.0728
104.400002	69.192	-26.4718
106.000000	69.154	-26.9339
107.500000	69.125	-27.2343
109.000000	69.120	-27.4135
110.599998	69.147	-27.5693
112.000000	69.188	-27.7902
113.800003	69.248	-28.2478
115.000000	69.290	-28.7147
117.199997	69.350	-29.9453
118.000000	69.359	-30.4754
120.599998	69.346	-32.0275
122.000000	69.338	-32.7575
124.099998	69.309	-33.8520
125.000000	69.289	-34.2966
126.500000	69.248	-34.9863
128.000000	69.206	-35.6189
131.500000	69.100	-36.9559
132.000000	69.084	-37.1329
134.000000	69.019	-37.8136
136.000000	68.955	-38.4666
138.000000	68.899	-39.0826
140.000000	68.851	-39.6509
143.000000	68.772	-40.4189
145.000000	68.712	-40.8789
147.500000	68.640	-41.4480
150.000000	68.583	-41.9538
152.500000	68.547	-42.3411
155.000000	68.526	-42.6485
157.500000	68.526	-42.9658
160.000000	68.545	-43.4455
162.500000	68.570	-44.1109
165.000000	68.591	-44.9437
167.500000	68.592	-45.8619
170.000000	68.576	-46.7835
172.500000	68.542	-47.7021
175.000000	68.495	-48.5763
177.500000	68.439	-49.3860
180.000000	68.378	-50.1293
182.500000	68.316	-50.8014
185.000000	68.262	-51.4471
187.500000	68.212	-52.1053
190.000000	68.160	-52.7307
192.500000	68.112	-53.2879
195.000000	68.071	-53.8398
197.500000	68.026	-54.4287
200.000000	67.977	-55.0203
203.000000	67.921	-55.7081
206.000000	67.869	-56.3567
209.000000	67.819	-56.9937
212.000000	67.765	-57.6612
214.000000	67.727	-58.1051
218.000000	67.654	-58.9272
220.000000	67.619	-59.3198
224.000000	67.550	-60.1119
227.000000	67.496	-60.6910
230.000000	67.440	-61.2481
233.000000	67.383	-61.7835
236.000000	67.333	-62.3025
240.000000	67.270	-62.9701
243.000000	67.218	-63.4563
247.000000	67.151	-64.0775
250.000000	67.100	-64.5509
254.000000	67.025	-65.1795
258.000000	66.955	-65.7807
262.000000	66.886	-66.3565
265.000000	66.836	-66.7926
269.000000	66.773	-67.3638
272.000000	66.727	-67.7624
276.000000	66.673	-68.2862
280.000000	66.625	-68.8126
285.000000	66.563	-69.4224
290.000000	66.496	-70.0353
295.000000	66.431	-70.6599
300.000000	66.372	-71.2598
304.000000	66.327	-71.6903
307.000000	66.293	-72.0075
311.000000	66.248	-72.4367
315.000000	66.205	-72.8578
320.000000	66.152	-73.3349
325.000000	66.101	-73.7966
330.000000	66.055	-74.2797
335.000000	66.008	-74.7748
340.000000	65.958	-75.2506
345.000000	65.906	-75.6879
350.000000	65.855	-76.1304
355.000000	65.803	-76.5443
360.000000	65.755	-76.9125
365.000000	65.709	-77.2281
370.000000	65.663	-77.5342
375.000000	65.614	-77.8697
382.000000	65.554	-78.3444
387.000000	65.516	-78.6328
395.000000	65.462	-79.0999
400.000000	65.423	-79.3844
406.000000	65.376	-79.6933
412.000000	65.329	-80.0015
418.000000	65.290	-80.3184
425.000000	65.253	-80.6290
431.000000	65.221	-80.8459
437.000000	65.193	-81.0818
444.000000	65.170	-81.3856
450.000000	65.152	-81.6449
455.000000	65.134	-81.8177
462.000000	65.106	-81.9942
468.000000	65.090	-82.1574
475.000000	65.075	-82.3668
482.000000	65.066	-82.5518
487.000000	65.063	-82.6754
494.000000	65.058	-82.8482
500.000000	65.055	-82.9978
508.000000	65.055	-83.1509
515.000000	65.055	-83.2614
522.000000	65.056	-83.3440
530.000000	65.059	-83.3977
538.000000	65.069	-83.5032
545.000000	65.081	-83.6135
552.000000	65.092	-83.6907
560.000000	65.106	-83.7437
570.000000	65.131	-83.7851
580.000000	65.152	-83.8088
590.000000	65.179	-83.8379
600.000000	65.216	-83.8243
608.000000	65.251	-83.7690
615.000000	65.284	-83.7193
622.000000	65.316	-83.6792
630.000000	65.357	-83.6351
640.000000	65.412	-83.5521
650.000000	65.473	-83.4532
660.000000	65.539	-83.3355
670.000000	65.610	-83.1721
680.000000	65.690	-83.0264
690.000000	65.776	-82.8837
700.000000	65.867	-82.7428
710.000000	65.961	-82.5943
720.000000	66.058	-82.4418
730.000000	66.162	-82.2946
740.000000	66.269	-82.1766
750.000000	66.382	-82.0881
762.000000	66.527	-81.9785
775.000000	66.690	-81.8219
788.000000	66.858	-81.7160
800.000000	67.019	-81.6624
812.000000	67.186	-81.6366
825.000000	67.375	-81.6113
838.000000	67.567	-81.5990
850.000000	67.750	-81.6229
862.000000	67.940	-81.6894
875.000000	68.150	-81.8231
885.000000	68.313	-81.9653
900.000000	68.561	-82.2021
912.000000	68.761	-82.4300
925.000000	68.984	-82.7166
938.000000	69.211	-83.0437
950.000000	69.420	-83.4020
962.000000	69.627	-83.8102
975.000000	69.850	-84.3045
988.000000	70.070	-84.8608
1000.000000	70.273	-85.4277
1015.000000	70.535	-86.2073
1030.000000	70.789	-87.0481
1044.000000	71.020	-87.8742
1060.000000	71.276	-88.8851
1075.000000	71.508	-89.8977
1090.000000	71.736	-90.9458
1106.000000	71.976	-92.1017
1120.000000	72.182	-93.1544
1138.000000	72.434	-94.5633
1150.000000	72.594	-95.5253
1172.000000	72.873	-97.3201
1180.000000	72.969	-97.9771
1206.000000	73.263	-100.1326
1220.000000	73.410	-101.2905
1241.000000	73.618	-103.0074
1250.000000	73.703	-103.7380
1265.000000	73.836	-104.9476
1280.000000	73.961	-106.1436
1315.000000	74.226	-108.8448
1320.000000	74.261	-109.2194
1340.000000	74.393	-110.6923
1360.000000	74.513	-112.1099
1380.000000	74.627	-113.4711
1400.000000	74.739	-114.7751
1430.000000	74.900	-116.6277
1450.000000	75.004	-117.8055
1475.000000	75.132	-119.2111
1500.000000	75.258	-120.5442
1525.000000	75.383	-121.8281
1550.000000	75.504	-123.0617
1575.000000	75.626	-124.2316
1600.000000	75.749	-125.3568
1625.000000	75.875	-126.4439
1650.000000	76.004	-127.4799
1675.000000	76.139	-128.4904
1700.000000	76.277	-129.4926
1725.000000	76.419	-130.4898
1750.000000	76.563	-131.4972
1775.000000	76.713	-132.5182
1800.000000	76.868	-133.5579
1825.000000	77.028	-134.6298
1850.000000	77.191	-135.7480
1875.000000	77.354	-136.9154
1900.000000	77.517	-138.1440
1925.000000	77.680	-139.4395
1950.000000	77.841	-140.8059
1975.000000	77.997	-142.2464
2000.000000	78.145	-143.7636
2030.000000	78.309	-145.6863
2060.000000	78.454	-147.7064
2090.000000	78.575	-149.7971
2120.000000	78.667	-151.9252
2140.000000	78.712	-153.3416
2180.000000	78.758	-156.0907
2200.000000	78.760	-157.3830
2240.000000	78.733	-159.6981
2270.000000	78.698	-161.1425
2300.000000	78.668	-162.3097
2330.000000	78.663	-163.2234
2360.000000	78.703	-163.9892
2400.000000	78.841	-165.0845
2430.000000	79.004	-166.1941
2470.000000	79.258	-168.2914
2500.000000	79.439	-170.3618
2540.000000	79.617	-173.6702
2580.000000	79.692	-177.3446
2620.000000	79.655	178.9310
2650.000000	79.562	176.2729
2690.000000	79.369	173.0569
2720.000000	79.187	170.9341
2760.000000	78.913	168.4926
2800.000000	78.622	166.4766
2850.000000	78.254	164.5204
2900.000000	77.900	163.1440
2950.000000	77.589	162.2560
3000.000000	77.348	161.6439
3040.000000	77.206	161.1348
3070.000000	77.118	160.6491
3110.000000	77.010	159.8334
3150.000000	76.894	158.8524
3200.000000	76.721	157.4855
3250.000000	76.511	156.0695
3300.000000	76.258	154.6670
3350.000000	75.958	153.3443
3400.000000	75.601	152.2120
3450.000000	75.181	151.4631
3500.000000	74.704	151.3959
3550.000000	74.207	152.3438
3600.000000	73.782	154.4191
3650.000000	73.539	157.2271
3700.000000	73.528	159.8354
3750.000000	73.657	161.3369
3820.000000	73.764	161.4000
3870.000000	73.654	160.9329
3950.000000	73.211	161.5159
4000.000000	72.906	163.2296
4060.000000	72.666	166.3617
4120.000000	72.635	169.9365
4180.000000	72.798	173.2344
4250.000000	73.151	176.1999
4310.000000	73.519	177.8654
4370.000000	73.899	178.7780
4440.000000	74.340	178.9979
4500.000000	74.708	178.5159
4550.000000	75.003	177.6167
4620.000000	75.374	175.4637
4680.000000	75.608	172.7016
4750.000000	75.704	168.5492
4820.000000	75.537	163.9808
4870.000000	75.248	160.9464
4940.000000	74.639	157.6293
5000.000000	73.988	155.9666
5080.000000	73.040	155.5742
5150.000000	72.221	156.7941
5220.000000	71.470	159.2220
5300.000000	70.743	163.1498
5380.000000	70.186	167.9734
5450.000000	69.852	172.6784
5520.000000	69.669	177.6174
5600.000000	69.649	-176.7086
5700.000000	69.903	-170.0345
5800.000000	70.443	-164.4773
5900.000000	71.181	-160.8105
6000.000000	71.956	-159.6420
6080.000000	72.460	-160.5214
6150.000000	72.734	-162.2451
6220.000000	72.821	-164.2933
6300.000000	72.705	-166.3025
6400.000000	72.331	-167.4628
6500.000000	71.857	-166.7686
6600.000000	71.413	-164.4338
6700.000000	71.082	-160.9087
6800.000000	70.906	-156.6288
6900.000000	70.914	-151.9711
7000.000000	71.098	-147.2279
7100.000000	71.441	-142.5602
7200.000000	71.937	-138.1836
7300.000000	72.582	-134.3501
7400.000000	73.365	-131.2783
7500.000000	74.271	-129.2364
7620.000000	75.487	-128.6565
7750.000000	76.802	-131.0570
7880.000000	77.800	-136.9662
8000.000000	78.233	-144.6921
8120.000000	78.124	-152.6114
8250.000000	77.509	-159.1188
8380.000000	76.648	-162.4061
8500.000000	75.875	-162.8732
8620.000000	75.275	-161.6875
8750.000000	74.892	-159.5815
8850.000000	74.790	-158.0175
9000.000000	74.917	-156.5260
9120.000000	75.241	-156.7487
9250.000000	75.719	-159.6078
9380.000000	76.073	-166.2548
9500.000000	75.979	-175.4487
9620.000000	75.277	174.4698
9750.000000	73.827	165.6865
9880.000000	71.885	161.0760
10000.000000	69.935	160.4801
10150.000000	67.591	163.3358
10300.000000	65.513	168.6589
10440.000000	63.842	174.8495
10600.000000	62.207	-177.4181
10750.000000	60.865	-169.9601
10900.000000	59.632	-162.3543
11060.000000	58.388	-153.9274
11200.000000	57.351	-146.1846
11380.000000	56.104	-135.6344
11500.000000	55.336	-128.2316
11720.000000	54.045	-113.9676
11800.000000	53.616	-108.5017
12060.000000	52.478	-89.8796
12200.000000	52.037	-79.7037
12410.000000	51.579	-64.6340
12500.000000	51.448	-58.3104
12650.000000	51.317	-48.0951
12800.000000	51.283	-38.4787
13150.000000	51.319	-18.2862
13200.000000	51.310	-15.5410
13400.000000	51.252	-4.3437
13600.000000	51.250	7.5891
13800.000000	51.442	19.9458
14000.000000	51.845	32.2022
14300.000000	52.788	50.4073
14500.000000	53.836	62.3488
14750.000000	55.666	74.8031
15000.000000	57.741	82.3693
15250.000000	59.658	84.5423
15500.000000	61.138	82.6087
15750.000000	62.211	79.5128
16000.000000	63.317	76.6998
16250.000000	64.751	70.6400
16500.000000	65.778	55.3378
16750.000000	65.225	33.4225
17000.000000	62.813	17.5790
17250.000000	59.276	13.8598
17500.000000	55.623	18.9140
17750.000000	52.416	28.3338
18000.000000	49.594	40.6428
18250.000000	46.894	57.8148
18500.000000	44.676	82.7079
18750.000000	44.456	110.3945
19000.000000	45.701	129.4409
19250.000000	46.674	139.5655
19500.000000	47.156	147.2845
19750.000000	47.610	155.1720
20000.000000	48.154	161.6173
