* Measurement data measured by REW V5.20.5
* Source: Mic in at rear panel (Pink)(Realtek(R) Audio), MICROPHONE (마스), L, volume: 1.000
* Format: 128k Log Swept Sine, 1 sweep at -12.0 dBFS with no timing reference
* Dated: 2022. 4. 11 오후 3:26:51
* REW Settings:
*  C-weighting compensation: Off
*  Target level: 75.0 dB
* Note: 
* Measurement: r
* Smoothing: 1/24 octave
* Frequency Step: 1/48 octave
* Start Frequency: 20.300 Hz
*
* Freq(Hz)	SPL(dB)	Phase(degrees)
20.299999	74.415	-111.7284
20.600000	74.463	-112.6430
20.900000	74.535	-114.1769
21.200001	74.553	-115.3419
21.400000	74.551	-115.8803
21.799999	74.563	-116.6094
22.000000	74.591	-116.9325
22.400000	74.685	-117.7559
22.700001	74.764	-118.6301
23.000000	74.819	-119.6742
23.299999	74.836	-120.6971
23.600000	74.823	-121.5277
24.000000	74.796	-122.1751
24.299999	74.807	-122.3600
24.700001	74.889	-122.4607
25.000000	74.992	-122.6396
25.400000	75.151	-123.1698
25.799999	75.296	-123.9672
26.200001	75.412	-124.8214
26.500000	75.487	-125.4039
26.900000	75.585	-126.0994
27.200001	75.662	-126.6229
27.600000	75.762	-127.4113
28.000000	75.841	-128.3134
28.500000	75.895	-129.4418
29.000000	75.922	-130.3750
29.500000	75.959	-131.1454
30.000000	76.001	-131.9304
30.400000	76.021	-132.5702
30.700001	76.027	-132.9784
31.100000	76.039	-133.3221
31.500000	76.081	-133.4564
32.000000	76.197	-133.6145
32.500000	76.355	-134.1381
33.000000	76.487	-135.0475
33.500000	76.564	-136.0050
34.000000	76.623	-136.8011
34.500000	76.698	-137.6348
35.000000	76.763	-138.7483
35.500000	76.778	-140.0248
36.000000	76.751	-141.1543
36.500000	76.734	-142.1566
37.000000	76.728	-143.4161
37.500000	76.662	-145.0390
38.200001	76.390	-146.6620
38.700001	76.196	-146.3919
39.500000	76.313	-144.8057
40.000000	76.596	-144.8861
40.599998	76.871	-146.4628
41.200001	76.947	-148.2807
41.799999	76.941	-149.2614
42.500000	76.994	-149.5638
43.099998	77.104	-149.7960
43.700001	77.215	-150.1494
44.400002	77.327	-150.5746
45.000000	77.410	-150.9955
45.500000	77.460	-151.4630
46.200001	77.483	-152.2460
46.799999	77.464	-152.8985
47.500000	77.428	-153.5459
48.200001	77.408	-154.1248
48.700001	77.409	-154.5511
49.400002	77.422	-155.2310
50.000000	77.435	-155.9069
50.799999	77.444	-156.8122
51.500000	77.454	-157.4539
52.200001	77.487	-158.0091
53.000000	77.536	-158.6879
53.799999	77.564	-159.3209
54.500000	77.576	-159.7635
55.200001	77.582	-160.1518
56.000000	77.591	-160.5488
57.000000	77.632	-161.2268
58.000000	77.641	-162.4128
59.000000	77.577	-163.3245
60.000000	77.608	-163.6162
60.799999	77.728	-164.2469
61.500000	77.791	-165.3036
62.200001	77.754	-166.3037
63.000000	77.639	-166.8004
64.000000	77.509	-166.5541
65.000000	77.490	-165.9322
66.000000	77.590	-166.1028
67.000000	77.612	-167.4018
68.000000	77.537	-168.5422
69.000000	77.498	-169.4016
70.000000	77.494	-170.2434
71.000000	77.516	-170.9889
72.000000	77.537	-171.5871
73.000000	77.553	-171.9464
74.000000	77.561	-172.3134
75.000000	77.522	-172.7551
76.199997	77.424	-173.0355
77.500000	77.382	-173.1905
78.800003	77.401	-174.0612
80.000000	77.375	-175.0742
81.199997	77.354	-175.8705
82.500000	77.319	-176.6418
83.800003	77.285	-177.0432
85.000000	77.290	-177.3877
86.199997	77.290	-177.9568
87.500000	77.260	-178.6852
88.500000	77.226	-179.1710
90.000000	77.171	-179.7837
91.199997	77.113	179.9063
92.500000	77.071	179.7131
93.800003	77.058	179.3215
95.000000	77.070	178.7424
96.199997	77.088	177.7182
97.500000	77.002	176.6440
98.800003	76.908	176.7262
100.000000	76.943	177.0175
101.500000	76.975	176.6224
103.000000	76.885	176.1236
104.400002	76.777	175.7842
106.000000	76.666	175.2330
107.500000	76.580	174.6334
109.000000	76.531	174.0643
110.599998	76.499	173.4934
112.000000	76.482	173.1904
113.800003	76.472	172.7775
115.000000	76.423	172.5458
117.199997	76.312	172.5289
118.000000	76.274	172.4874
120.599998	76.219	172.2268
122.000000	76.232	171.6752
124.099998	76.206	170.8663
125.000000	76.175	170.6013
126.500000	76.090	170.1772
128.000000	75.969	169.6378
131.500000	75.680	168.8569
132.000000	75.678	168.9695
134.000000	75.810	169.4732
136.000000	75.921	169.3460
138.000000	75.832	168.7783
140.000000	75.611	168.1704
143.000000	75.422	167.6784
145.000000	75.422	167.6498
147.500000	75.388	167.6794
150.000000	75.263	167.2937
152.500000	75.148	166.6463
155.000000	75.120	166.2629
157.500000	75.106	166.1874
160.000000	75.007	166.0049
162.500000	74.874	165.7346
165.000000	74.775	165.3433
167.500000	74.698	165.3369
170.000000	74.668	165.6223
172.500000	74.639	165.6840
175.000000	74.567	165.7676
177.500000	74.489	166.0397
180.000000	74.416	166.1262
182.500000	74.307	166.0574
185.000000	74.148	166.2664
187.500000	74.004	166.6255
190.000000	73.946	166.6546
192.500000	73.964	166.5785
195.000000	73.973	167.1417
197.500000	73.984	168.1266
200.000000	74.016	168.2129
203.000000	74.055	167.1799
206.000000	74.111	166.4181
209.000000	74.160	166.0107
212.000000	74.163	165.5898
214.000000	74.150	165.2526
218.000000	74.012	164.4677
220.000000	73.917	164.3072
224.000000	73.833	164.2415
227.000000	73.755	164.3024
230.000000	73.654	164.4315
233.000000	73.565	164.1357
236.000000	73.452	163.8781
240.000000	73.336	163.9626
243.000000	73.292	163.7279
247.000000	73.236	163.0773
250.000000	73.169	162.8560
254.000000	73.044	162.9358
258.000000	72.890	162.8899
262.000000	72.754	162.7987
265.000000	72.676	162.8311
269.000000	72.567	162.7830
272.000000	72.488	162.8200
276.000000	72.418	163.1796
280.000000	72.347	163.4765
285.000000	72.198	163.4509
290.000000	72.053	163.5599
295.000000	71.954	163.6978
300.000000	71.868	163.8139
304.000000	71.776	164.0103
307.000000	71.707	164.2123
311.000000	71.636	164.4615
315.000000	71.555	164.5495
320.000000	71.450	164.6189
325.000000	71.361	164.7014
330.000000	71.235	164.9432
335.000000	71.129	165.3690
340.000000	71.023	165.8148
345.000000	70.913	166.2399
350.000000	70.824	166.5854
355.000000	70.710	166.8886
360.000000	70.598	167.1592
365.000000	70.491	167.5041
370.000000	70.416	167.8165
375.000000	70.365	168.1959
382.000000	70.279	169.1328
387.000000	70.193	169.4316
395.000000	70.004	169.7192
400.000000	69.892	170.1933
406.000000	69.782	170.8152
412.000000	69.678	171.2826
418.000000	69.575	171.5120
425.000000	69.457	171.8541
431.000000	69.345	172.3074
437.000000	69.230	172.9038
444.000000	69.162	173.8125
450.000000	69.100	174.5314
455.000000	69.003	175.0111
462.000000	68.868	175.5247
468.000000	68.767	176.0217
475.000000	68.670	176.6666
482.000000	68.614	177.3799
487.000000	68.590	177.9734
494.000000	68.528	178.7101
500.000000	68.450	179.2517
508.000000	68.327	-179.8610
515.000000	68.261	-179.1272
522.000000	68.206	-178.5382
530.000000	68.131	-177.8726
538.000000	68.016	-177.0294
545.000000	67.878	-176.2193
552.000000	67.751	-175.5409
560.000000	67.628	-174.7722
570.000000	67.580	-173.7217
580.000000	67.544	-172.5410
590.000000	67.465	-171.1453
600.000000	67.351	-169.9502
608.000000	67.243	-169.0478
615.000000	67.145	-168.0607
622.000000	67.061	-167.1174
630.000000	67.005	-166.3374
640.000000	66.963	-165.3676
650.000000	66.889	-164.2815
660.000000	66.824	-163.2559
670.000000	66.776	-161.9221
680.000000	66.709	-160.7125
690.000000	66.631	-159.4120
700.000000	66.565	-158.0580
710.000000	66.522	-156.9538
720.000000	66.476	-155.6111
730.000000	66.417	-154.1380
740.000000	66.382	-153.1052
750.000000	66.356	-152.1244
762.000000	66.326	-150.6857
775.000000	66.311	-149.2477
788.000000	66.336	-147.9149
800.000000	66.304	-146.4952
812.000000	66.212	-145.0528
825.000000	66.164	-143.4205
838.000000	66.193	-141.7128
850.000000	66.215	-140.1407
862.000000	66.197	-138.6673
875.000000	66.205	-137.3247
885.000000	66.241	-136.3491
900.000000	66.261	-134.8151
912.000000	66.255	-133.6202
925.000000	66.236	-132.2524
938.000000	66.237	-130.7977
950.000000	66.296	-129.6930
962.000000	66.374	-128.6791
975.000000	66.425	-127.6457
988.000000	66.437	-127.0417
1000.000000	66.458	-126.4330
1015.000000	66.514	-124.3945
1030.000000	66.572	-122.4697
1044.000000	66.634	-121.2245
1060.000000	66.662	-119.6393
1075.000000	66.703	-118.3341
1090.000000	66.763	-117.4164
1106.000000	66.823	-116.4497
1120.000000	66.861	-115.5193
1138.000000	66.927	-114.2215
1150.000000	66.992	-113.3484
1172.000000	67.075	-111.7659
1180.000000	67.090	-111.2154
1206.000000	67.120	-109.4340
1220.000000	67.142	-108.4914
1241.000000	67.179	-107.0132
1250.000000	67.186	-106.3906
1265.000000	67.212	-105.4581
1280.000000	67.263	-104.4956
1315.000000	67.487	-102.2852
1320.000000	67.522	-101.9665
1340.000000	67.646	-100.7053
1360.000000	67.736	-99.4121
1380.000000	67.824	-98.1772
1400.000000	67.897	-97.0127
1430.000000	67.989	-95.4175
1450.000000	68.047	-94.3386
1475.000000	68.129	-93.0810
1500.000000	68.183	-91.6601
1525.000000	68.221	-90.2196
1550.000000	68.290	-89.0447
1575.000000	68.320	-87.9599
1600.000000	68.281	-86.9343
1625.000000	68.167	-85.9287
1650.000000	67.984	-84.7936
1675.000000	67.708	-82.8187
1700.000000	67.441	-79.1801
1725.000000	67.354	-74.0289
1750.000000	67.576	-68.8522
1775.000000	67.971	-64.6895
1800.000000	68.407	-61.7566
1825.000000	68.825	-59.6347
1850.000000	69.185	-58.0004
1875.000000	69.494	-56.5731
1900.000000	69.756	-55.3178
1925.000000	70.005	-54.0945
1950.000000	70.265	-52.8503
1975.000000	70.517	-51.6654
2000.000000	70.759	-50.4824
2030.000000	71.053	-48.9894
2060.000000	71.350	-47.3636
2090.000000	71.641	-45.8378
2120.000000	71.917	-44.5065
2140.000000	72.107	-43.6879
2180.000000	72.507	-42.1836
2200.000000	72.710	-41.4216
2240.000000	73.113	-39.8577
2270.000000	73.420	-38.8256
2300.000000	73.734	-37.8896
2330.000000	74.051	-37.0289
2360.000000	74.370	-36.3233
2400.000000	74.801	-35.6647
2430.000000	75.126	-35.3522
2470.000000	75.529	-35.0497
2500.000000	75.820	-34.8954
2540.000000	76.219	-34.8582
2580.000000	76.613	-34.9886
2620.000000	76.997	-35.4683
2650.000000	77.269	-36.0910
2690.000000	77.597	-37.1982
2720.000000	77.821	-38.1799
2760.000000	78.081	-39.6233
2800.000000	78.270	-41.2314
2850.000000	78.416	-43.3212
2900.000000	78.479	-45.1978
2950.000000	78.482	-46.9329
3000.000000	78.442	-48.5645
3040.000000	78.371	-49.6688
3070.000000	78.289	-50.4148
3110.000000	78.148	-51.3121
3150.000000	77.978	-51.9649
3200.000000	77.739	-52.3670
3250.000000	77.488	-52.3645
3300.000000	77.238	-51.9819
3350.000000	77.005	-51.3209
3400.000000	76.791	-50.5735
3450.000000	76.592	-49.6729
3500.000000	76.392	-48.6240
3550.000000	76.193	-47.4316
3600.000000	76.009	-45.9980
3650.000000	75.839	-44.3289
3700.000000	75.679	-42.5105
3750.000000	75.545	-40.6216
3820.000000	75.395	-37.9665
3870.000000	75.294	-36.1040
3950.000000	75.158	-32.9250
4000.000000	75.109	-30.8842
4060.000000	75.064	-28.4334
4120.000000	75.016	-25.7633
4180.000000	74.977	-23.0325
4250.000000	74.942	-19.8568
4310.000000	74.939	-17.0930
4370.000000	74.968	-14.3454
4440.000000	75.051	-11.1302
4500.000000	75.176	-8.3272
4550.000000	75.310	-5.9817
4620.000000	75.521	-2.7651
4680.000000	75.736	-0.1156
4750.000000	76.027	2.9187
4820.000000	76.353	5.9630
4870.000000	76.599	8.0960
4940.000000	76.985	10.9743
5000.000000	77.363	13.3564
5080.000000	77.920	16.3274
5150.000000	78.481	18.6613
5220.000000	79.104	20.7146
5300.000000	79.885	22.6389
5380.000000	80.752	23.9936
5450.000000	81.590	24.5261
5520.000000	82.497	24.2701
5600.000000	83.593	22.7373
5700.000000	84.976	18.3022
5800.000000	86.185	10.3299
5900.000000	86.928	-0.9999
6000.000000	86.985	-13.7369
6080.000000	86.549	-22.9520
6150.000000	85.910	-29.3460
6220.000000	85.133	-33.9610
6300.000000	84.183	-37.2730
6400.000000	83.035	-39.1285
6500.000000	82.007	-39.1641
6600.000000	81.129	-37.8800
6700.000000	80.405	-35.6640
6800.000000	79.838	-32.7756
6900.000000	79.437	-29.4783
7000.000000	79.197	-26.0116
7100.000000	79.107	-22.5616
7200.000000	79.169	-19.2946
7300.000000	79.398	-16.3659
7400.000000	79.782	-13.9743
7500.000000	80.305	-12.3601
7620.000000	81.093	-11.9665
7750.000000	82.049	-14.5611
7880.000000	82.827	-21.5077
8000.000000	83.045	-31.8995
8120.000000	82.533	-44.0696
8250.000000	81.146	-55.4625
8380.000000	79.187	-62.4311
8500.000000	77.214	-64.9074
8620.000000	75.301	-64.6070
8750.000000	73.383	-62.2031
8850.000000	72.032	-59.3111
9000.000000	70.200	-53.7889
9120.000000	68.866	-48.5315
9250.000000	67.536	-41.8881
9380.000000	66.339	-33.6352
9500.000000	65.529	-24.7131
9620.000000	65.174	-16.6747
9750.000000	64.941	-10.8409
9880.000000	64.512	-5.9563
10000.000000	64.073	-1.0496
10150.000000	63.592	5.0367
10300.000000	63.098	10.9510
10440.000000	62.656	16.6660
10600.000000	62.213	23.9396
10750.000000	61.892	30.9533
10900.000000	61.676	37.8174
11060.000000	61.520	45.4158
11200.000000	61.506	52.0303
11380.000000	61.657	60.3671
11500.000000	61.833	65.8536
11720.000000	62.385	75.5200
11800.000000	62.642	78.8198
12060.000000	63.671	89.1138
12200.000000	64.468	94.1722
12410.000000	66.126	100.3971
12500.000000	67.016	102.2055
12650.000000	68.701	103.1524
12800.000000	70.467	99.9756
13150.000000	72.643	71.1169
13200.000000	72.531	65.7806
13400.000000	71.018	48.6801
13600.000000	68.464	41.6693
13800.000000	65.821	42.5887
14000.000000	63.594	47.7785
14300.000000	61.162	58.4617
14500.000000	60.063	66.7669
14750.000000	59.133	77.8503
15000.000000	58.616	88.9986
15250.000000	58.473	99.4023
15500.000000	58.656	108.8719
15750.000000	59.400	116.7644
16000.000000	60.904	121.2383
16250.000000	63.031	118.5262
16500.000000	64.644	103.3411
16750.000000	64.451	79.1058
17000.000000	62.218	61.0128
17250.000000	58.866	55.8758
17500.000000	55.567	59.8778
17750.000000	52.876	67.8627
18000.000000	50.898	70.0323
18250.000000	49.616	-6.2775
18500.000000	48.663	-156.1042
18750.000000	47.881	-27.3096
19000.000000	47.415	95.3335
19250.000000	47.095	-36.2305
19500.000000	46.805	142.7031
19750.000000	46.392	-37.4395
20000.000000	45.989	-48.9434
