* Measurement data measured by REW V5.20.7
* Source: 마이크(Realtek High Definition Audi, MICROPHONE (마스), L, volume: 0.050
* Format: 128k Log Swept Sine, 1 sweep at -12.0 dBFS with no timing reference
* Dated: May 5, 2023 5:30:19 PM
* REW Settings:
*  C-weighting compensation: Off
*  Target level: 75.0 dB
* Note: ; 
* Measurement: Craftears C4 L
* Smoothing: 1/48 octave
* Frequency Step: 1/96 octave
* Start Frequency: 20.145 Hz
*
* Freq(Hz)	SPL(dB)	Phase(degrees)
20.144928	85.084	39.4443
20.290907	85.102	39.2743
20.437943	85.119	39.0314
20.586044	85.136	38.7783
20.735220	85.150	38.5021
20.885475	85.161	38.2126
21.036821	85.167	37.9105
21.189262	85.170	37.6024
21.342808	85.171	37.3028
21.497467	85.169	37.0083
21.653246	85.166	36.7288
21.810154	85.161	36.4678
21.968201	85.157	36.2166
22.127390	85.155	35.9754
22.287735	85.155	35.7369
22.449242	85.158	35.4844
22.611917	85.164	35.2206
22.775772	85.170	34.9316
22.940815	85.178	34.6162
23.107054	85.185	34.2817
23.274498	85.189	33.9243
23.443153	85.192	33.5605
23.613033	85.192	33.1974
23.784142	85.191	32.8408
23.956491	85.190	32.5044
24.130091	85.191	32.1834
24.304947	85.195	31.8789
24.481071	85.202	31.5866
24.658470	85.213	31.2905
24.837156	85.228	30.9907
25.017136	85.244	30.6707
25.198421	85.263	30.3327
25.381020	85.279	29.9776
25.564941	85.295	29.6074
25.750195	85.307	29.2409
25.936790	85.315	28.8791
26.124741	85.322	28.5423
26.314051	85.327	28.2292
26.504732	85.332	27.9448
26.696796	85.339	27.6844
26.890253	85.346	27.4362
27.085112	85.355	27.1952
27.281382	85.366	26.9462
27.479073	85.377	26.6907
27.678198	85.387	26.4230
27.878765	85.395	26.1543
28.080786	85.400	25.8877
28.284271	85.404	25.6359
28.489231	85.405	25.4018
28.695675	85.407	25.1852
28.903616	85.410	24.9820
29.113064	85.416	24.7790
29.324028	85.423	24.5686
29.536524	85.431	24.3401
29.750557	85.437	24.0952
29.966141	85.441	23.8341
30.183289	85.443	23.5733
30.402010	85.442	23.3182
30.622314	85.439	23.0828
30.844217	85.437	22.8626
31.067726	85.437	22.6567
31.292856	85.442	22.4439
31.519617	85.448	22.2148
31.748020	85.457	21.9533
31.978081	85.463	21.6619
32.209808	85.466	21.3456
32.443211	85.463	21.0258
32.678310	85.456	20.7229
32.915108	85.446	20.4499
33.153625	85.438	20.2160
33.393871	85.433	20.0070
33.635857	85.436	19.8121
33.879597	85.445	19.6004
34.125103	85.457	19.3640
34.372387	85.469	19.0943
34.621464	85.478	18.8051
34.872345	85.483	18.5143
35.125042	85.484	18.2379
35.379574	85.484	17.9914
35.635948	85.486	17.7666
35.894180	85.491	17.5544
36.154285	85.499	17.3335
36.416275	85.508	17.0916
36.680161	85.515	16.8309
36.945961	85.518	16.5593
37.213688	85.517	16.3020
37.483353	85.513	16.0714
37.754974	85.510	15.8705
38.028561	85.509	15.6917
38.304131	85.513	15.5068
38.581699	85.519	15.2977
38.861279	85.524	15.0555
39.142883	85.526	14.7836
39.426529	85.521	14.5080
39.712231	85.511	14.2534
40.000000	85.499	14.0340
40.289856	85.488	13.8532
40.581814	85.482	13.6952
40.875885	85.482	13.5325
41.172089	85.486	13.3472
41.470440	85.491	13.1317
41.770950	85.494	12.8906
42.073643	85.493	12.6401
42.378525	85.490	12.3982
42.685616	85.486	12.1729
42.994934	85.482	11.9630
43.306492	85.481	11.7606
43.620308	85.482	11.5549
43.936401	85.484	11.3359
44.254780	85.486	11.0997
44.575470	85.487	10.8490
44.898483	85.484	10.5925
45.223835	85.477	10.3427
45.551544	85.467	10.1125
45.881630	85.457	9.9103
46.214108	85.448	9.7358
46.548996	85.443	9.5765
46.886307	85.443	9.4111
47.226067	85.447	9.2188
47.568283	85.450	8.9910
47.912983	85.450	8.7376
48.260181	85.445	8.4820
48.609894	85.436	8.2483
48.962143	85.426	8.0477
49.316940	85.418	7.8733
49.674313	85.415	7.7055
50.034271	85.414	7.5254
50.396843	85.415	7.3265
50.762039	85.414	7.1150
51.129883	85.412	6.9005
51.500389	85.409	6.6865
51.873581	85.406	6.4691
52.249481	85.400	6.2465
52.628101	85.392	6.0280
53.009464	85.382	5.8315
53.393593	85.372	5.6682
53.780506	85.365	5.5272
54.170223	85.363	5.3794
54.562763	85.363	5.1999
54.958145	85.359	4.9915
55.356396	85.351	4.7848
55.757530	85.340	4.6116
56.161572	85.332	4.4737
56.568542	85.331	4.3366
56.978462	85.335	4.1582
57.391350	85.337	3.9275
57.807232	85.331	3.6752
58.226128	85.319	3.4482
58.648056	85.305	3.2716
59.073048	85.297	3.1323
59.501114	85.297	2.9897
59.932281	85.302	2.8046
60.366577	85.307	2.5642
60.804020	85.305	2.2896
61.244629	85.293	2.0229
61.688435	85.277	1.8036
62.135452	85.262	1.6396
62.585712	85.255	1.4977
63.039234	85.254	1.3307
63.496040	85.253	1.1174
63.956161	85.247	0.8756
64.419617	85.235	0.6408
64.886421	85.221	0.4328
65.356621	85.206	0.2514
65.830215	85.194	0.0878
66.307251	85.185	-0.0730
66.787743	85.179	-0.2526
67.271713	85.172	-0.4648
67.759193	85.161	-0.6903
68.250206	85.145	-0.8906
68.744774	85.130	-1.0548
69.242928	85.120	-1.2173
69.744690	85.112	-1.4078
70.250084	85.099	-1.6104
70.759148	85.085	-1.7928
71.271896	85.073	-1.9614
71.788361	85.063	-2.1442
72.308571	85.049	-2.3353
72.832550	85.034	-2.5040
73.360321	85.021	-2.6538
73.891922	85.011	-2.8174
74.427376	85.000	-2.9958
74.966705	84.985	-3.1587
75.509949	84.973	-3.3067
76.057121	84.961	-3.4682
76.608261	84.947	-3.6337
77.163399	84.933	-3.7719
77.722557	84.923	-3.9048
78.285767	84.916	-4.0789
78.853058	84.903	-4.2749
79.424461	84.886	-4.4397
80.000000	84.874	-4.5852
80.579712	84.864	-4.7600
81.163628	84.849	-4.9521
81.751770	84.832	-5.1197
82.344177	84.819	-5.2764
82.940880	84.806	-5.4534
83.541901	84.789	-5.6346
84.147285	84.772	-5.7999
84.757050	84.755	-5.9599
85.371231	84.739	-6.1230
85.989868	84.723	-6.2901
86.612984	84.705	-6.4602
87.240616	84.685	-6.6173
87.872803	84.668	-6.7642
88.509560	84.651	-6.9324
89.150940	84.629	-7.0988
89.796967	84.609	-7.2281
90.447670	84.594	-7.3729
91.103088	84.575	-7.5578
91.763260	84.549	-7.6869
92.428215	84.534	-7.7797
93.097992	84.524	-7.9566
93.772614	84.500	-8.1532
94.452133	84.474	-8.2525
95.136566	84.461	-8.3681
95.825966	84.442	-8.5485
96.520363	84.416	-8.6689
97.219788	84.399	-8.7595
97.924286	84.383	-8.9060
98.633881	84.361	-9.0359
99.348625	84.344	-9.1500
100.068542	84.324	-9.3084
100.793686	84.298	-9.4325
101.524078	84.278	-9.5256
102.259766	84.259	-9.6609
103.000778	84.235	-9.7658
103.747162	84.219	-9.8503
104.498962	84.204	-9.9953
105.256203	84.182	-10.1149
106.018929	84.167	-10.2054
106.787186	84.152	-10.3522
107.561012	84.129	-10.4747
108.340446	84.113	-10.5714
109.125526	84.097	-10.7349
109.916290	84.069	-10.8721
110.712791	84.047	-10.9495
111.515060	84.030	-11.0819
112.323143	84.003	-11.2160
113.137085	83.981	-11.2954
113.956924	83.963	-11.4164
114.782700	83.939	-11.5403
115.614464	83.918	-11.6240
116.452255	83.899	-11.7560
117.296112	83.870	-11.8608
118.146095	83.848	-11.9183
119.002228	83.827	-12.0394
119.864563	83.798	-12.1220
120.733154	83.779	-12.1812
121.608040	83.757	-12.3143
122.489258	83.727	-12.3883
123.376869	83.708	-12.4499
124.270905	83.685	-12.5670
125.171425	83.658	-12.6317
126.078468	83.639	-12.7088
126.992081	83.613	-12.8090
127.912323	83.588	-12.8639
128.839233	83.567	-12.9422
129.772842	83.541	-13.0212
130.713242	83.517	-13.0727
131.660431	83.494	-13.1569
132.614502	83.466	-13.2177
133.575485	83.444	-13.2638
134.543427	83.419	-13.3430
135.518387	83.393	-13.3838
136.500412	83.372	-13.4424
137.489548	83.345	-13.5130
138.485855	83.322	-13.5522
139.489380	83.300	-13.6330
140.500168	83.272	-13.6896
141.518295	83.250	-13.7423
142.543793	83.223	-13.8148
143.576721	83.196	-13.8379
144.617142	83.175	-13.8873
145.665100	83.148	-13.9367
146.720642	83.125	-13.9697
147.783844	83.100	-14.0297
148.854752	83.074	-14.0609
149.933411	83.051	-14.1038
151.019897	83.025	-14.1480
152.114243	82.999	-14.1669
153.216522	82.975	-14.2019
154.326797	82.949	-14.2246
155.445114	82.926	-14.2485
156.571533	82.899	-14.2856
157.706116	82.874	-14.2933
158.848923	82.849	-14.3314
160.000000	82.821	-14.3440
161.159424	82.797	-14.3570
162.327255	82.770	-14.3774
163.503540	82.746	-14.3812
164.688354	82.721	-14.4111
165.881760	82.693	-14.4152
167.083801	82.670	-14.4211
168.294571	82.644	-14.4371
169.514099	82.621	-14.4310
170.742462	82.597	-14.4482
171.979736	82.572	-14.4339
173.225967	82.551	-14.4363
174.481232	82.525	-14.4323
175.745605	82.503	-14.4144
177.019119	82.480	-14.4209
178.301880	82.457	-14.4045
179.593933	82.436	-14.4053
180.895340	82.412	-14.3970
182.206177	82.391	-14.3843
183.526520	82.369	-14.3800
184.856430	82.348	-14.3600
186.195984	82.325	-14.3517
187.545227	82.303	-14.3267
188.904266	82.281	-14.3105
190.273132	82.258	-14.2948
191.651932	82.236	-14.2755
193.040726	82.212	-14.2684
194.439575	82.188	-14.2372
195.848572	82.166	-14.2205
197.267761	82.142	-14.1907
198.697250	82.120	-14.1644
200.137085	82.097	-14.1340
201.587372	82.076	-14.1022
203.048157	82.053	-14.0692
204.519531	82.033	-14.0304
206.001556	82.010	-13.9988
207.494324	81.988	-13.9584
208.997925	81.965	-13.9253
210.512405	81.942	-13.8800
212.037857	81.919	-13.8434
213.574371	81.897	-13.7937
215.122025	81.875	-13.7475
216.680893	81.852	-13.6996
218.251053	81.831	-13.6482
219.832581	81.807	-13.6058
221.425583	81.784	-13.5475
223.030121	81.760	-13.5016
224.646286	81.736	-13.4411
226.274170	81.713	-13.3948
227.913849	81.689	-13.3361
229.565399	81.667	-13.2873
231.228928	81.643	-13.2322
232.904510	81.622	-13.1814
234.592224	81.598	-13.1254
236.292191	81.575	-13.0592
238.004456	81.553	-12.9994
239.729126	81.531	-12.9356
241.466309	81.511	-12.8810
243.216080	81.491	-12.8213
244.978516	81.471	-12.7547
246.753738	81.450	-12.6717
248.541809	81.431	-12.5864
250.342850	81.412	-12.5025
252.156937	81.393	-12.4243
253.984161	81.373	-12.3420
255.824646	81.354	-12.2629
257.678467	81.335	-12.1753
259.545685	81.316	-12.0896
261.426483	81.300	-11.9994
263.320862	81.285	-11.9174
265.229004	81.269	-11.8344
267.150970	81.254	-11.7581
269.086853	81.238	-11.6917
271.036774	81.221	-11.6329
273.000824	81.203	-11.5699
274.979095	81.187	-11.4945
276.971710	81.170	-11.4281
278.978760	81.152	-11.3456
281.000336	81.135	-11.2636
283.036591	81.119	-11.1801
285.087585	81.103	-11.0993
287.153442	81.085	-11.0075
289.234283	81.068	-10.9044
291.330200	81.053	-10.7963
293.441284	81.038	-10.6803
295.567688	81.023	-10.5670
297.709503	81.008	-10.4396
299.866821	80.996	-10.2980
302.039795	80.988	-10.1495
304.228485	80.986	-9.9901
306.433044	80.986	-9.8485
308.653595	80.985	-9.7351
310.890228	80.985	-9.6473
313.143066	80.986	-9.5926
315.412231	80.985	-9.5650
317.697845	80.981	-9.5516
320.000000	80.975	-9.5417
322.318848	80.964	-9.5240
324.654510	80.952	-9.4935
327.007080	80.936	-9.4576
329.376709	80.919	-9.4285
331.763519	80.901	-9.3937
334.167603	80.885	-9.3409
336.589142	80.869	-9.2760
339.028198	80.851	-9.2068
341.484924	80.833	-9.1434
343.959473	80.816	-9.0704
346.451935	80.799	-8.9893
348.962463	80.783	-8.9035
351.491211	80.766	-8.8273
354.038239	80.750	-8.7458
356.603760	80.734	-8.6588
359.187866	80.719	-8.5663
361.790680	80.702	-8.4797
364.412354	80.687	-8.3966
367.053040	80.671	-8.3136
369.712860	80.656	-8.2266
372.391968	80.641	-8.1452
375.090454	80.626	-8.0611
377.808533	80.611	-7.9725
380.546265	80.596	-7.8741
383.303864	80.581	-7.7789
386.081451	80.568	-7.6818
388.879150	80.554	-7.5809
391.697144	80.541	-7.4712
394.535522	80.527	-7.3663
397.394501	80.513	-7.2686
400.274170	80.498	-7.1686
403.174744	80.483	-7.0644
406.096313	80.469	-6.9574
409.039062	80.455	-6.8550
412.003113	80.441	-6.7556
414.988647	80.426	-6.6574
417.995850	80.412	-6.5530
421.024811	80.398	-6.4431
424.075714	80.384	-6.3304
427.148743	80.368	-6.2200
430.244049	80.352	-6.1091
433.361786	80.336	-6.0059
436.502106	80.320	-5.8900
439.665161	80.304	-5.7669
442.851166	80.288	-5.6374
446.060242	80.271	-5.5054
449.292572	80.253	-5.3701
452.548340	80.236	-5.2323
455.827698	80.218	-5.0893
459.130798	80.201	-4.9349
462.457855	80.184	-4.7732
465.809021	80.167	-4.6106
469.184448	80.149	-4.4524
472.584381	80.132	-4.2895
476.008911	80.115	-4.1258
479.458252	80.100	-3.9602
482.932617	80.087	-3.7855
486.432159	80.074	-3.5989
489.957031	80.060	-3.4116
493.507477	80.046	-3.2289
497.083618	80.033	-3.0338
500.685699	80.023	-2.8359
504.313873	80.013	-2.6300
507.968323	80.005	-2.4155
511.649292	79.996	-2.1969
515.356934	79.988	-1.9696
519.091370	79.980	-1.7388
522.852966	79.974	-1.4992
526.641724	79.968	-1.2511
530.458008	79.964	-0.9783
534.301941	79.963	-0.6882
538.173706	79.964	-0.3886
542.073547	79.971	-0.0890
546.001648	79.982	0.1960
549.958191	79.999	0.4694
553.943420	80.020	0.6980
557.957520	80.042	0.8824
562.000671	80.065	1.0179
566.073181	80.082	1.1070
570.175171	80.093	1.1883
574.306885	80.100	1.2649
578.468567	80.105	1.3459
582.660400	80.108	1.4221
586.882568	80.106	1.5083
591.135376	80.103	1.6121
595.419006	80.097	1.7170
599.733643	80.090	1.8358
604.079590	80.082	1.9641
608.456970	80.074	2.0963
612.866089	80.066	2.2495
617.307190	80.060	2.4127
621.780457	80.054	2.5823
626.286133	80.048	2.7592
630.824463	80.043	2.9401
635.395691	80.039	3.1326
640.000000	80.036	3.3254
644.637695	80.031	3.5127
649.309021	80.026	3.6998
654.014160	80.022	3.8897
658.753418	80.016	4.0856
663.527039	80.010	4.2940
668.335205	80.006	4.5001
673.178284	80.002	4.7020
678.056396	79.999	4.9091
682.969849	79.996	5.1361
687.918945	79.996	5.3784
692.903870	79.996	5.6224
697.924927	79.995	5.8790
702.982422	79.995	6.1380
708.076477	79.996	6.3859
713.207520	79.997	6.6293
718.375732	79.996	6.8802
723.581360	79.997	7.1398
728.824707	79.998	7.4021
734.106079	79.998	7.6585
739.425720	79.996	7.9172
744.783936	79.997	8.1887
750.180908	80.002	8.4684
755.617065	80.011	8.7453
761.092529	80.021	9.0292
766.607727	80.030	9.3169
772.162903	80.037	9.6075
777.758301	80.044	9.9010
783.394287	80.053	10.1856
789.071045	80.060	10.4543
794.789001	80.068	10.7221
800.548340	80.076	11.0020
806.349487	80.087	11.3006
812.192627	80.101	11.6215
818.078125	80.118	11.9504
824.006226	80.138	12.2673
829.977295	80.158	12.5730
835.991699	80.179	12.8721
842.049622	80.198	13.1720
848.151428	80.218	13.4911
854.297485	80.239	13.8250
860.488098	80.263	14.1689
866.723572	80.293	14.5164
873.004211	80.330	14.8444
879.330322	80.374	15.1445
885.702332	80.423	15.4118
892.120483	80.475	15.6351
898.585144	80.525	15.8200
905.096680	80.572	16.0008
911.655396	80.615	16.1991
918.261597	80.655	16.4144
924.915710	80.693	16.6517
931.618042	80.732	16.9123
938.368896	80.774	17.1950
945.168762	80.817	17.4982
952.017822	80.860	17.8171
958.916504	80.906	18.1402
965.865234	80.954	18.4511
972.864319	81.002	18.7433
979.914062	81.050	19.0129
987.014954	81.095	19.2446
994.167236	81.139	19.4294
1001.371399	81.183	19.5707
1008.627747	81.231	19.6950
1015.936646	81.287	19.8210
1023.298584	81.350	19.9652
1030.713867	81.417	20.1448
1038.182739	81.483	20.3634
1045.705933	81.546	20.6026
1053.283447	81.608	20.8338
1060.916016	81.670	21.0222
1068.603882	81.731	21.1528
1076.347412	81.789	21.2273
1084.147095	81.844	21.2499
1092.003296	81.899	21.2502
1099.916382	81.954	21.2488
1107.886841	82.010	21.2583
1115.915039	82.068	21.2798
1124.001343	82.130	21.3140
1132.146362	82.196	21.3515
1140.350342	82.263	21.3733
1148.613770	82.326	21.3864
1156.937134	82.386	21.3736
1165.320801	82.440	21.3231
1173.765137	82.493	21.2682
1182.270752	82.548	21.2016
1190.838013	82.604	21.1080
1199.467285	82.662	21.0065
1208.159180	82.727	20.8925
1216.913940	82.801	20.7495
1225.732178	82.881	20.5874
1234.614380	82.961	20.4240
1243.560913	83.040	20.2580
1252.572266	83.116	20.0717
1261.648926	83.187	19.8500
1270.791382	83.253	19.5998
1280.000000	83.317	19.3397
1289.275391	83.383	19.0890
1298.618042	83.451	18.8565
1308.028320	83.519	18.6397
1317.506836	83.585	18.4272
1327.054077	83.646	18.1954
1336.670410	83.701	17.9353
1346.356567	83.755	17.6551
1356.112793	83.811	17.3639
1365.939697	83.869	17.0670
1375.837891	83.929	16.7784
1385.807739	83.989	16.5054
1395.849854	84.046	16.2566
1405.964844	84.103	16.0394
1416.152954	84.159	15.8449
1426.415039	84.217	15.6650
1436.751465	84.275	15.4736
1447.162720	84.334	15.2425
1457.649414	84.395	14.9566
1468.212158	84.456	14.6131
1478.851440	84.517	14.2251
1489.567871	84.575	13.8101
1500.361816	84.634	13.3815
1511.234131	84.692	12.9638
1522.185059	84.749	12.5710
1533.215454	84.797	12.1947
1544.325806	84.835	11.8276
1555.516602	84.865	11.4745
1566.788574	84.889	11.1466
1578.142090	84.907	10.8402
1589.578003	84.924	10.5185
1601.096680	84.943	10.1612
1612.698975	84.966	9.7842
1624.385254	84.993	9.4073
1636.156250	85.023	9.0378
1648.012451	85.051	8.6789
1659.954590	85.078	8.3332
1671.983398	85.102	8.0047
1684.099243	85.122	7.6807
1696.302856	85.141	7.3456
1708.594971	85.159	6.9965
1720.976196	85.179	6.6296
1733.447144	85.199	6.2491
1746.008423	85.217	5.8546
1758.660645	85.233	5.4570
1771.404663	85.246	5.0604
1784.240967	85.258	4.6792
1797.170288	85.267	4.3190
1810.193359	85.274	3.9772
1823.310791	85.278	3.6475
1836.523193	85.280	3.3216
1849.831421	85.280	2.9943
1863.236084	85.278	2.6619
1876.737793	85.276	2.3246
1890.337524	85.272	1.9856
1904.035645	85.269	1.6491
1917.833008	85.266	1.3161
1931.730469	85.262	0.9987
1945.728638	85.257	0.7023
1959.828125	85.252	0.4258
1974.029907	85.245	0.1646
1988.334473	85.238	-0.0879
2002.742798	85.231	-0.3323
2017.255493	85.225	-0.5657
2031.873291	85.221	-0.7833
2046.597168	85.216	-0.9891
2061.427734	85.213	-1.1800
2076.365479	85.210	-1.3559
2091.411865	85.209	-1.5169
2106.566895	85.209	-1.6604
2121.832031	85.209	-1.7815
2137.207764	85.210	-1.8792
2152.694824	85.213	-1.9547
2168.294189	85.217	-2.0094
2184.006592	85.224	-2.0479
2199.832764	85.234	-2.0737
2215.773682	85.247	-2.0779
2231.830078	85.265	-2.0608
2248.002686	85.290	-2.0333
2264.292725	85.320	-1.9919
2280.700684	85.356	-1.9362
2297.227539	85.400	-1.8761
2313.874268	85.453	-1.8174
2330.641602	85.516	-1.7661
2347.530273	85.590	-1.7366
2364.541504	85.674	-1.7438
2381.676025	85.770	-1.8120
2398.934570	85.876	-1.9701
2416.318359	85.989	-2.2418
2433.827881	86.108	-2.6369
2451.464355	86.228	-3.1660
2469.228760	86.342	-3.8301
2487.121826	86.443	-4.6146
2505.144531	86.527	-5.4916
2523.297852	86.590	-6.4299
2541.582764	86.632	-7.3943
2560.000000	86.652	-8.3532
2578.550781	86.652	-9.2761
2597.236084	86.637	-10.1306
2616.056641	86.608	-10.8978
2635.013672	86.568	-11.5663
2654.108154	86.520	-12.1349
2673.340820	86.469	-12.6148
2692.713135	86.416	-13.0146
2712.225586	86.364	-13.3391
2731.879395	86.313	-13.5922
2751.675781	86.266	-13.7804
2771.615479	86.224	-13.9177
2791.699707	86.187	-14.0118
2811.929688	86.158	-14.0697
2832.305908	86.134	-14.1015
2852.830078	86.117	-14.1129
2873.502930	86.107	-14.1096
2894.325439	86.105	-14.0948
2915.298828	86.110	-14.0696
2936.424316	86.122	-14.0430
2957.702881	86.142	-14.0266
2979.135742	86.168	-14.0256
3000.723633	86.200	-14.0478
3022.468262	86.240	-14.0961
3044.370117	86.286	-14.1692
3066.430908	86.339	-14.2683
3088.651611	86.397	-14.4002
3111.033203	86.461	-14.5762
3133.577148	86.529	-14.8110
3156.284180	86.600	-15.1119
3179.156006	86.674	-15.4835
3202.193359	86.751	-15.9296
3225.397949	86.827	-16.4547
3248.770508	86.902	-17.0723
3272.312500	86.973	-17.7865
3296.024902	87.035	-18.5920
3319.909180	87.087	-19.4884
3343.966797	87.125	-20.4646
3368.198486	87.145	-21.4941
3392.605713	87.145	-22.5507
3417.189941	87.124	-23.6050
3441.952393	87.083	-24.6186
3466.894287	87.022	-25.5463
3492.016846	86.947	-26.3497
3517.321289	86.864	-27.0028
3542.809326	86.780	-27.4974
3568.481934	86.703	-27.8406
3594.340576	86.641	-28.0543
3620.386719	86.600	-28.1824
3646.621582	86.582	-28.2807
3673.046387	86.587	-28.4162
3699.662842	86.612	-28.6472
3726.472168	86.649	-29.0082
3753.475586	86.691	-29.5205
3780.675049	86.730	-30.1852
3808.071289	86.760	-30.9838
3835.666016	86.779	-31.8906
3863.460938	86.784	-32.8838
3891.457275	86.773	-33.9452
3919.656250	86.743	-35.0499
3948.059814	86.693	-36.1688
3976.668945	86.623	-37.2760
4005.485596	86.534	-38.3471
4034.510986	86.429	-39.3582
4063.746582	86.309	-40.2956
4093.194336	86.178	-41.1474
4122.855469	86.041	-41.9078
4152.730957	85.897	-42.5750
4182.823730	85.750	-43.1547
4213.133789	85.600	-43.6554
4243.664062	85.450	-44.0782
4274.415527	85.300	-44.4235
4305.389648	85.149	-44.6908
4336.588379	84.998	-44.8800
4368.013184	84.848	-44.9824
4399.665527	84.702	-44.9954
4431.547363	84.565	-44.9201
4463.660156	84.439	-44.7674
4496.005371	84.325	-44.5642
4528.585449	84.224	-44.3350
4561.401367	84.136	-44.1026
4594.455078	84.063	-43.8886
4627.748535	84.001	-43.7157
4661.283203	83.947	-43.5963
4695.060547	83.899	-43.5494
4729.083008	83.853	-43.5895
4763.352051	83.807	-43.7153
4797.869141	83.757	-43.9235
4832.636719	83.699	-44.2097
4867.655762	83.626	-44.5574
4902.928711	83.538	-44.9589
4938.457520	83.433	-45.3984
4974.243652	83.311	-45.8366
5010.289062	83.173	-46.2476
5046.595703	83.019	-46.6122
5083.165527	82.851	-46.8956
5120.000000	82.673	-47.0698
5157.101562	82.488	-47.1352
5194.472168	82.298	-47.0881
5232.113281	82.107	-46.9237
5270.027344	81.921	-46.6446
5308.216309	81.743	-46.2655
5346.681641	81.578	-45.8106
5385.426270	81.425	-45.2963
5424.451172	81.286	-44.7374
5463.758789	81.159	-44.1656
5503.351562	81.045	-43.6134
5543.230957	80.942	-43.0919
5583.399414	80.854	-42.6234
5623.859375	80.780	-42.2476
5664.611816	80.722	-42.0113
5705.660156	80.678	-41.9833
5747.005859	80.638	-42.2474
5788.650879	80.589	-42.8872
5830.597656	80.510	-43.9689
5872.848633	80.365	-45.4742
5915.405762	80.134	-47.2536
5958.271484	79.812	-49.3099
6001.447266	79.345	-51.6290
6044.936523	78.673	-53.7177
6088.740234	77.784	-54.8494
6132.861816	76.709	-54.2857
6177.303223	75.536	-51.4617
6222.066406	74.406	-46.2006
6267.154297	73.491	-38.8768
6312.568359	72.927	-30.3827
6358.312012	72.744	-21.7862
6404.386719	72.864	-13.9007
6450.795898	73.173	-7.1055
6497.541016	73.579	-1.4255
6544.625000	74.024	3.3250
6592.049805	74.475	7.3391
6639.818359	74.921	10.7858
6687.933594	75.361	13.8001
6736.396973	75.794	16.4653
6785.211426	76.222	18.8536
6834.379883	76.646	21.0197
6883.904785	77.072	22.9945
6933.788574	77.503	24.7837
6984.033691	77.938	26.4018
7034.642578	78.378	27.8544
7085.618652	78.825	29.1204
7136.963867	79.279	30.1881
7188.681152	79.739	31.0423
7240.773438	80.204	31.6599
7293.243164	80.670	32.0101
7346.092773	81.131	32.0655
7399.325684	81.577	31.8062
7452.944336	82.000	31.2222
7506.951172	82.391	30.3349
7561.350098	82.739	29.1747
7616.142578	83.033	27.8013
7671.332031	83.263	26.3033
7726.921875	83.421	24.7913
7782.914551	83.506	23.3961
7839.312500	83.531	22.2459
7896.119629	83.507	21.4512
7953.337891	83.455	21.1002
8010.971191	83.396	21.2391
8069.021973	83.354	21.8696
8127.493164	83.353	22.9538
8186.388672	83.413	24.4127
8245.710938	83.553	26.1295
8305.461914	83.786	27.9586
8365.647461	84.122	29.7321
8426.267578	84.562	31.2738
8487.328125	85.106	32.3844
8548.831055	85.741	32.8362
8610.779297	86.445	32.3849
8673.176758	87.175	30.8020
8736.026367	87.878	27.9238
8799.331055	88.493	23.7070
8863.094727	88.959	18.2810
8927.320312	89.222	11.9778
8992.010742	89.249	5.3185
9057.170898	89.044	-1.0874
9122.802734	88.643	-6.7194
9188.910156	88.101	-11.2675
9255.497070	87.476	-14.6505
9322.566406	86.818	-16.9524
9390.121094	86.160	-18.3377
9458.166016	85.527	-18.9838
9526.704102	84.930	-19.0442
9595.738281	84.375	-18.6375
9665.273438	83.864	-17.8547
9735.311523	83.398	-16.7779
9805.857422	82.976	-15.4711
9876.915039	82.595	-13.9590
9948.487305	82.250	-12.2703
10020.578125	81.943	-10.4387
10093.191406	81.672	-8.4860
10166.331055	81.437	-6.4290
10240.000000	81.236	-4.2835
10314.203125	81.069	-2.0645
10388.944336	80.936	0.2114
10464.226562	80.838	2.5191
10540.054688	80.776	4.8469
10616.432617	80.750	7.1861
10693.363281	80.763	9.5008
10770.852539	80.815	11.7689
10848.902344	80.904	13.9742
10927.517578	81.027	16.0997
11006.703125	81.187	18.1239
11086.461914	81.387	20.0134
11166.798828	81.628	21.7072
11247.718750	81.910	23.1419
11329.223633	82.234	24.2674
11411.320312	82.597	25.0144
11494.011719	82.996	25.2930
11577.301758	83.421	25.0042
11661.195312	83.852	24.0336
11745.697266	84.262	22.2890
11830.811523	84.619	19.7253
11916.542969	84.882	16.3679
12002.894531	85.014	12.3657
12089.873047	84.984	8.0006
12177.480469	84.786	3.6479
12265.723633	84.435	-0.3099
12354.606445	83.961	-3.5607
12444.132812	83.397	-5.9185
12534.308594	82.781	-7.3350
12625.136719	82.149	-7.8635
12716.624023	81.527	-7.6085
12808.773438	80.936	-6.6794
12901.591797	80.386	-5.1887
12995.082031	79.885	-3.2432
13089.250000	79.435	-0.9281
13184.099609	79.042	1.6878
13279.636719	78.703	4.5452
13375.867188	78.414	7.6164
13472.793945	78.168	10.9175
13570.422852	77.965	14.5877
13668.759766	77.851	18.9123
13767.809570	77.962	23.8925
13867.577148	78.367	28.4765
13968.067383	78.887	31.4475
14069.285156	79.321	33.2227
14171.237305	79.666	34.8919
14273.927734	80.018	36.9230
14377.362305	80.476	39.1810
14481.546875	81.073	40.9917
14586.486328	81.718	41.7913
14692.185547	82.340	41.8739
14798.651367	82.971	41.5994
14905.888672	83.646	40.8452
15013.902344	84.362	39.3034
15122.700195	85.079	36.6957
15232.285156	85.741	32.8891
15342.664062	86.290	27.9662
15453.843750	86.690	22.2073
15565.829102	86.934	15.9105
15678.625000	87.017	9.2020
15792.239258	86.895	2.2173
15906.675781	86.490	-4.1997
16021.942383	85.864	-8.2649
16138.043945	85.443	-9.5378
16254.986328	85.587	-11.1926
16372.777344	85.968	-16.4658
16491.421875	86.133	-25.2858
16610.923828	85.905	-35.9894
16731.294922	85.248	-47.0276
16852.535156	84.180	-57.1404
16974.656250	82.773	-65.3893
17097.662109	81.146	-71.3723
17221.558594	79.419	-75.2494
17346.353516	77.665	-77.4771
17472.052734	75.935	-78.5943
17598.662109	74.276	-79.1340
17726.189453	72.694	-79.5657
17854.640625	71.152	-80.2098
17984.021484	69.587	-81.2339
18114.341797	67.928	-82.6154
18245.605469	66.105	-84.0175
18377.820312	64.058	-84.8098
18510.994141	61.773	-84.3431
18645.132812	59.281	-82.1907
18780.242188	56.630	-78.1327
18916.332031	53.841	-72.0867
19053.408203	50.910	-63.5985
19191.476562	47.854	-51.6635
19330.546875	44.693	-34.9707
19470.623047	41.530	-11.4210
19611.714844	39.020	20.1903
19753.830078	38.344	54.1459
19896.974609	39.016	79.3931
