* Measurement data measured by REW V5.20.7
* Source: 마이크(Realtek High Definition Audi, MICROPHONE (마스), L, volume: 0.050
* Format: 128k Log Swept Sine, 1 sweep at -12.0 dBFS with no timing reference
* Dated: May 5, 2023 5:30:56 PM
* REW Settings:
*  C-weighting compensation: Off
*  Target level: 75.0 dB
* Note: ; 
* Measurement: Craftears C4 R
* Smoothing: 1/48 octave
* Frequency Step: 1/96 octave
* Start Frequency: 20.145 Hz
*
* Freq(Hz)	SPL(dB)	Phase(degrees)
20.144928	84.926	40.4438
20.290907	84.934	40.2595
20.437943	84.943	40.0018
20.586044	84.950	39.7549
20.735220	84.956	39.5040
20.885475	84.962	39.2470
21.036821	84.965	38.9853
21.189262	84.968	38.7186
21.342808	84.970	38.4481
21.497467	84.973	38.1734
21.653246	84.975	37.8991
21.810154	84.975	37.6257
21.968201	84.976	37.3522
22.127390	84.977	37.0808
22.287735	84.980	36.8072
22.449242	84.984	36.5250
22.611917	84.990	36.2348
22.775772	84.998	35.9248
22.940815	85.008	35.5950
23.107054	85.018	35.2433
23.274498	85.027	34.8655
23.443153	85.035	34.4722
23.613033	85.041	34.0642
23.784142	85.044	33.6522
23.956491	85.046	33.2492
24.130091	85.047	32.8572
24.304947	85.048	32.4911
24.481071	85.049	32.1475
24.658470	85.053	31.8279
24.837156	85.059	31.5296
25.017136	85.070	31.2374
25.198421	85.085	30.9514
25.381020	85.104	30.6532
25.564941	85.125	30.3441
25.750195	85.146	30.0185
25.936790	85.166	29.6784
26.124741	85.185	29.3342
26.314051	85.200	28.9880
26.504732	85.213	28.6559
26.696796	85.223	28.3382
26.890253	85.230	28.0439
27.085112	85.235	27.7698
27.281382	85.242	27.5140
27.479073	85.248	27.2715
27.678198	85.256	27.0368
27.878765	85.263	26.8078
28.080786	85.270	26.5824
28.284271	85.277	26.3641
28.489231	85.284	26.1536
28.695675	85.291	25.9524
28.903616	85.299	25.7575
29.113064	85.310	25.5612
29.324028	85.322	25.3526
29.536524	85.336	25.1205
29.750557	85.349	24.8557
29.966141	85.361	24.5550
30.183289	85.366	24.2283
30.402010	85.366	23.8885
30.622314	85.358	23.5574
30.844217	85.344	23.2581
31.067726	85.327	23.0020
31.292856	85.310	22.7948
31.519617	85.297	22.6226
31.748020	85.291	22.4700
31.978081	85.291	22.3032
32.209808	85.294	22.1127
32.443211	85.298	21.8832
32.678310	85.299	21.6352
32.915108	85.295	21.3800
33.153625	85.287	21.1573
33.393871	85.280	20.9741
33.635857	85.278	20.8396
33.879597	85.287	20.7224
34.125103	85.306	20.5862
34.372387	85.334	20.3955
34.621464	85.363	20.1138
34.872345	85.385	19.7587
35.125042	85.395	19.3484
35.379574	85.389	18.9547
35.635948	85.372	18.6287
35.894180	85.350	18.3993
36.154285	85.335	18.2765
36.416275	85.334	18.1954
36.680161	85.347	18.0999
36.945961	85.373	17.9241
37.213688	85.397	17.6302
37.483353	85.411	17.2576
37.754974	85.408	16.8583
38.028561	85.388	16.5155
38.304131	85.362	16.2972
38.581699	85.344	16.1882
38.861279	85.344	16.1403
39.142883	85.367	16.0595
39.426529	85.404	15.8379
39.712231	85.438	15.4569
40.000000	85.456	14.9540
40.289856	85.449	14.4138
40.581814	85.418	13.9623
40.875885	85.378	13.6785
41.172089	85.346	13.5514
41.470440	85.334	13.5151
41.770950	85.345	13.4668
42.073643	85.371	13.3080
42.378525	85.393	13.0214
42.685616	85.401	12.6721
42.994934	85.392	12.3489
43.306492	85.373	12.1241
43.620308	85.357	12.0183
43.936401	85.357	11.9814
44.254780	85.375	11.9138
44.575470	85.401	11.7417
44.898483	85.422	11.4577
45.223835	85.428	11.1120
45.551544	85.417	10.7804
45.881630	85.396	10.5230
46.214108	85.374	10.3532
46.548996	85.361	10.2341
46.886307	85.357	10.1065
47.226067	85.359	9.9299
47.568283	85.358	9.7042
47.912983	85.353	9.4581
48.260181	85.345	9.2205
48.609894	85.337	8.9988
48.962143	85.332	8.7795
49.316940	85.328	8.5445
49.674313	85.322	8.2921
50.034271	85.312	8.0424
50.396843	85.300	7.8245
50.762039	85.289	7.6544
51.129883	85.286	7.5194
51.500389	85.291	7.3826
51.873581	85.303	7.2046
52.249481	85.316	6.9687
52.628101	85.322	6.6921
53.009464	85.319	6.4162
53.393593	85.310	6.1822
53.780506	85.299	6.0059
54.170223	85.293	5.8683
54.562763	85.294	5.7285
54.958145	85.299	5.5491
55.356396	85.302	5.3183
55.757530	85.299	5.0547
56.161572	85.287	4.7931
56.568542	85.270	4.5623
56.978462	85.253	4.3716
57.391350	85.238	4.2110
57.807232	85.228	4.0611
58.226128	85.223	3.9013
58.648056	85.222	3.7133
59.073048	85.223	3.4843
59.501114	85.220	3.2156
59.932281	85.211	2.9308
60.366577	85.194	2.6710
60.804020	85.173	2.4709
61.244629	85.155	2.3350
61.688435	85.145	2.2323
62.135452	85.145	2.1156
62.585712	85.149	1.9533
63.039234	85.151	1.7455
63.496040	85.147	1.5123
63.956161	85.138	1.2784
64.419617	85.124	1.0624
64.886421	85.108	0.8756
65.356621	85.092	0.7188
65.830215	85.081	0.5752
66.307251	85.075	0.4151
66.787743	85.069	0.2211
67.271713	85.060	0.0051
67.759193	85.047	-0.2023
68.250206	85.033	-0.3876
68.744774	85.023	-0.5663
69.242928	85.014	-0.7579
69.744690	85.003	-0.9559
70.250084	84.991	-1.1401
70.759148	84.981	-1.3139
71.271896	84.974	-1.5031
71.788361	84.964	-1.7145
72.308571	84.949	-1.9166
72.832550	84.933	-2.0818
73.360321	84.922	-2.2309
73.891922	84.914	-2.4032
74.427376	84.902	-2.5969
74.966705	84.887	-2.7751
75.509949	84.874	-2.9299
76.057121	84.864	-3.0970
76.608261	84.852	-3.2939
77.163399	84.835	-3.4859
77.722557	84.817	-3.6428
78.285767	84.804	-3.7911
78.853058	84.793	-3.9698
79.424461	84.778	-4.1647
80.000000	84.761	-4.3381
80.579712	84.746	-4.4977
81.163628	84.733	-4.6768
81.751770	84.717	-4.8656
82.344177	84.699	-5.0266
82.940880	84.685	-5.1640
83.541901	84.674	-5.3218
84.147285	84.662	-5.5068
84.757050	84.645	-5.6762
85.371231	84.630	-5.8210
85.989868	84.618	-5.9801
86.612984	84.604	-6.1655
87.240616	84.584	-6.3409
87.872803	84.564	-6.4913
88.509560	84.545	-6.6398
89.150940	84.525	-6.7875
89.796967	84.506	-6.9182
90.447670	84.490	-7.0483
91.103088	84.475	-7.2040
91.763260	84.458	-7.3717
92.428215	84.439	-7.5300
93.097992	84.419	-7.6797
93.772614	84.399	-7.8203
94.452133	84.380	-7.9467
95.136566	84.363	-8.0729
95.825966	84.348	-8.2149
96.520363	84.330	-8.3663
97.219788	84.311	-8.5144
97.924286	84.292	-8.6613
98.633881	84.272	-8.8146
99.348625	84.250	-8.9611
100.068542	84.228	-9.0823
100.793686	84.211	-9.1996
101.524078	84.194	-9.3386
102.259766	84.175	-9.4760
103.000778	84.158	-9.6019
103.747162	84.140	-9.7442
104.498962	84.118	-9.8860
105.256203	84.094	-9.9922
106.018929	84.075	-10.0885
106.787186	84.056	-10.2058
107.561012	84.035	-10.3312
108.340446	84.012	-10.4460
109.125526	83.991	-10.5546
109.916290	83.971	-10.6754
110.712791	83.947	-10.7987
111.515060	83.924	-10.8994
112.323143	83.903	-11.0025
113.137085	83.880	-11.1191
113.956924	83.856	-11.2153
114.782700	83.835	-11.3097
115.614464	83.812	-11.4194
116.452255	83.787	-11.5058
117.296112	83.766	-11.5893
118.146095	83.746	-11.7027
119.002228	83.722	-11.8163
119.864563	83.697	-11.9215
120.733154	83.671	-12.0112
121.608040	83.648	-12.0816
122.489258	83.627	-12.1657
123.376869	83.605	-12.2525
124.270905	83.584	-12.3348
125.171425	83.561	-12.4304
126.078468	83.537	-12.5146
126.992081	83.513	-12.5933
127.912323	83.488	-12.6753
128.839233	83.464	-12.7457
129.772842	83.441	-12.8267
130.713242	83.416	-12.9074
131.660431	83.392	-12.9751
132.614502	83.368	-13.0444
133.575485	83.345	-13.1084
134.543427	83.321	-13.1714
135.518387	83.298	-13.2302
136.500412	83.276	-13.2944
137.489548	83.251	-13.3678
138.485855	83.225	-13.4247
139.489380	83.201	-13.4870
140.500168	83.173	-13.5500
141.518295	83.147	-13.5889
142.543793	83.124	-13.6349
143.576721	83.100	-13.6899
144.617142	83.075	-13.7404
145.665100	83.050	-13.7881
146.720642	83.025	-13.8305
147.783844	82.999	-13.8754
148.854752	82.974	-13.9152
149.933411	82.949	-13.9520
151.019897	82.923	-13.9880
152.114243	82.897	-14.0123
153.216522	82.872	-14.0406
154.326797	82.847	-14.0659
155.445114	82.824	-14.0936
156.571533	82.800	-14.1328
157.706116	82.775	-14.1733
158.848923	82.748	-14.2097
160.000000	82.722	-14.2300
161.159424	82.697	-14.2540
162.327255	82.669	-14.2702
163.503540	82.643	-14.2785
164.688354	82.616	-14.2886
165.881760	82.589	-14.2938
167.083801	82.564	-14.3053
168.294571	82.540	-14.3178
169.514099	82.517	-14.3333
170.742462	82.493	-14.3490
171.979736	82.469	-14.3525
173.225967	82.447	-14.3526
174.481232	82.424	-14.3501
175.745605	82.402	-14.3529
177.019119	82.379	-14.3549
178.301880	82.356	-14.3502
179.593933	82.333	-14.3470
180.895340	82.309	-14.3419
182.206177	82.284	-14.3316
183.526520	82.261	-14.3146
184.856430	82.238	-14.3064
186.195984	82.215	-14.2935
187.545227	82.193	-14.2752
188.904266	82.172	-14.2587
190.273132	82.151	-14.2440
191.651932	82.128	-14.2271
193.040726	82.103	-14.1996
194.439575	82.077	-14.1667
195.848572	82.053	-14.1298
197.267761	82.030	-14.1031
198.697250	82.006	-14.0812
200.137085	81.983	-14.0615
201.587372	81.959	-14.0380
203.048157	81.936	-14.0093
204.519531	81.912	-13.9760
206.001556	81.888	-13.9352
207.494324	81.864	-13.8930
208.997925	81.840	-13.8508
210.512405	81.816	-13.8192
212.037857	81.793	-13.7900
213.574371	81.768	-13.7581
215.122025	81.744	-13.7144
216.680893	81.720	-13.6658
218.251053	81.697	-13.6178
219.832581	81.674	-13.5691
221.425583	81.650	-13.5169
223.030121	81.627	-13.4704
224.646286	81.602	-13.4285
226.274170	81.577	-13.3863
227.913849	81.552	-13.3420
229.565399	81.528	-13.2962
231.228928	81.505	-13.2529
232.904510	81.482	-13.2080
234.592224	81.456	-13.1516
236.292191	81.430	-13.0837
238.004456	81.404	-13.0199
239.729126	81.379	-12.9581
241.466309	81.354	-12.8883
243.216080	81.330	-12.8073
244.978516	81.305	-12.7157
246.753738	81.280	-12.6201
248.541809	81.253	-12.5234
250.342850	81.228	-12.4204
252.156937	81.205	-12.3088
253.984161	81.182	-12.1816
255.824646	81.162	-12.0309
257.678467	81.144	-11.8717
259.545685	81.127	-11.7166
261.426483	81.112	-11.5620
263.320862	81.099	-11.4187
265.229004	81.088	-11.2783
267.150970	81.077	-11.1378
269.086853	81.066	-10.9908
271.036774	81.055	-10.8411
273.000824	81.045	-10.6954
274.979095	81.037	-10.5545
276.971710	81.035	-10.4168
278.978760	81.038	-10.3000
281.000336	81.041	-10.2054
283.036591	81.046	-10.1446
285.087585	81.050	-10.1315
287.153442	81.053	-10.1467
289.234283	81.051	-10.1664
291.330200	81.043	-10.1793
293.441284	81.030	-10.1872
295.567688	81.014	-10.1879
297.709503	80.998	-10.1814
299.866821	80.980	-10.1619
302.039795	80.960	-10.1284
304.228485	80.939	-10.0867
306.433044	80.918	-10.0391
308.653595	80.898	-9.9812
310.890228	80.878	-9.9146
313.143066	80.860	-9.8359
315.412231	80.842	-9.7505
317.697845	80.826	-9.6659
320.000000	80.810	-9.5818
322.318848	80.796	-9.5030
324.654510	80.782	-9.4343
327.007080	80.768	-9.3740
329.376709	80.753	-9.3136
331.763519	80.738	-9.2487
334.167603	80.723	-9.1822
336.589142	80.706	-9.1113
339.028198	80.688	-9.0371
341.484924	80.669	-8.9628
343.959473	80.647	-8.8887
346.451935	80.622	-8.8028
348.962463	80.598	-8.6969
351.491211	80.575	-8.5779
354.038239	80.552	-8.4538
356.603760	80.528	-8.3195
359.187866	80.505	-8.1738
361.790680	80.483	-8.0130
364.412354	80.462	-7.8347
367.053040	80.444	-7.6395
369.712860	80.429	-7.4323
372.391968	80.417	-7.2182
375.090454	80.408	-6.9996
377.808533	80.402	-6.7704
380.546265	80.401	-6.5440
383.303864	80.407	-6.3464
386.081451	80.417	-6.1855
388.879150	80.428	-6.0569
391.697144	80.438	-5.9589
394.535522	80.444	-5.8885
397.394501	80.448	-5.8361
400.274170	80.447	-5.7906
403.174744	80.444	-5.7499
406.096313	80.440	-5.7165
409.039062	80.434	-5.6805
412.003113	80.427	-5.6400
414.988647	80.419	-5.6007
417.995850	80.411	-5.5572
421.024811	80.401	-5.5017
424.075714	80.390	-5.4337
427.148743	80.379	-5.3591
430.244049	80.367	-5.2833
433.361786	80.355	-5.2096
436.502106	80.343	-5.1334
439.665161	80.330	-5.0477
442.851166	80.317	-4.9554
446.060242	80.304	-4.8644
449.292572	80.291	-4.7757
452.548340	80.279	-4.6865
455.827698	80.267	-4.5888
459.130798	80.254	-4.4751
462.457855	80.242	-4.3599
465.809021	80.231	-4.2488
469.184448	80.220	-4.1315
472.584381	80.208	-4.0070
476.008911	80.196	-3.8867
479.458252	80.185	-3.7739
482.932617	80.175	-3.6565
486.432159	80.165	-3.5252
489.957031	80.153	-3.3882
493.507477	80.143	-3.2595
497.083618	80.134	-3.1371
500.685699	80.124	-3.0069
504.313873	80.113	-2.8784
507.968323	80.103	-2.7538
511.649292	80.093	-2.6195
515.356934	80.084	-2.4723
519.091370	80.074	-2.3247
522.852966	80.064	-2.1863
526.641724	80.055	-2.0489
530.458008	80.047	-1.9051
534.301941	80.038	-1.7589
538.173706	80.026	-1.6092
542.073547	80.016	-1.4500
546.001648	80.007	-1.2807
549.958191	79.998	-1.1091
553.943420	79.988	-0.9449
557.957520	79.979	-0.7904
562.000671	79.969	-0.6386
566.073181	79.958	-0.4778
570.175171	79.948	-0.3004
574.306885	79.937	-0.1168
578.468567	79.927	0.0642
582.660400	79.917	0.2402
586.882568	79.908	0.4146
591.135376	79.900	0.5921
595.419006	79.892	0.7754
599.733643	79.884	0.9636
604.079590	79.877	1.1492
608.456970	79.869	1.3383
612.866089	79.863	1.5368
617.307190	79.857	1.7395
621.780457	79.851	1.9432
626.286133	79.845	2.1494
630.824463	79.840	2.3599
635.395691	79.835	2.5693
640.000000	79.829	2.7840
644.637695	79.824	3.0029
649.309021	79.820	3.2188
654.014160	79.817	3.4326
658.753418	79.814	3.6443
663.527039	79.811	3.8680
668.335205	79.807	4.1049
673.178284	79.804	4.3422
678.056396	79.802	4.5756
682.969849	79.801	4.8149
687.918945	79.802	5.0683
692.903870	79.803	5.3281
697.924927	79.803	5.5975
702.982422	79.804	5.8721
708.076477	79.807	6.1442
713.207520	79.812	6.4213
718.375732	79.819	6.7069
723.581360	79.827	6.9992
728.824707	79.837	7.2852
734.106079	79.848	7.5500
739.425720	79.860	7.7961
744.783936	79.872	8.0439
750.180908	79.885	8.3048
755.617065	79.897	8.5560
761.092529	79.907	8.8011
766.607727	79.917	9.0575
772.162903	79.928	9.3223
777.758301	79.938	9.5889
783.394287	79.948	9.8616
789.071045	79.959	10.1396
794.789001	79.969	10.4233
800.548340	79.982	10.7206
806.349487	79.997	11.0245
812.192627	80.013	11.3251
818.078125	80.029	11.6229
824.006226	80.047	11.9244
829.977295	80.067	12.2332
835.991699	80.089	12.5434
842.049622	80.114	12.8530
848.151428	80.138	13.1625
854.297485	80.163	13.4733
860.488098	80.189	13.7847
866.723572	80.216	14.0970
873.004211	80.242	14.4078
879.330322	80.270	14.7220
885.702332	80.300	15.0345
892.120483	80.332	15.3394
898.585144	80.365	15.6446
905.096680	80.400	15.9499
911.655396	80.435	16.2541
918.261597	80.473	16.5544
924.915710	80.514	16.8499
931.618042	80.557	17.1407
938.368896	80.600	17.4271
945.168762	80.647	17.7090
952.017822	80.695	17.9808
958.916504	80.743	18.2395
965.865234	80.793	18.4871
972.864319	80.847	18.7252
979.914062	80.902	18.9485
987.014954	80.957	19.1532
994.167236	81.011	19.3387
1001.371399	81.065	19.5085
1008.627747	81.120	19.6708
1015.936646	81.173	19.8237
1023.298584	81.226	19.9700
1030.713867	81.277	20.1169
1038.182739	81.329	20.2732
1045.705933	81.381	20.4365
1053.283447	81.436	20.5974
1060.916016	81.490	20.7463
1068.603882	81.544	20.8845
1076.347412	81.599	21.0152
1084.147095	81.652	21.1344
1092.003296	81.709	21.2402
1099.916382	81.769	21.3291
1107.886841	81.829	21.4016
1115.915039	81.889	21.4630
1124.001343	81.950	21.5147
1132.146362	82.010	21.5516
1140.350342	82.069	21.5723
1148.613770	82.127	21.5864
1156.937134	82.185	21.5944
1165.320801	82.243	21.5885
1173.765137	82.302	21.5742
1182.270752	82.361	21.5589
1190.838013	82.420	21.5273
1199.467285	82.481	21.4749
1208.159180	82.543	21.4057
1216.913940	82.611	21.3134
1225.732178	82.683	21.1942
1234.614380	82.758	21.0562
1243.560913	82.832	20.9056
1252.572266	82.905	20.7472
1261.648926	82.977	20.5853
1270.791382	83.048	20.4246
1280.000000	83.117	20.2620
1289.275391	83.183	20.0997
1298.618042	83.248	19.9383
1308.028320	83.311	19.7797
1317.506836	83.372	19.6177
1327.054077	83.431	19.4407
1336.670410	83.489	19.2527
1346.356567	83.547	19.0562
1356.112793	83.606	18.8474
1365.939697	83.667	18.6258
1375.837891	83.730	18.3930
1385.807739	83.794	18.1540
1395.849854	83.857	17.9133
1405.964844	83.919	17.6659
1416.152954	83.980	17.4118
1426.415039	84.041	17.1539
1436.751465	84.101	16.8973
1447.162720	84.160	16.6392
1457.649414	84.217	16.3752
1468.212158	84.274	16.1063
1478.851440	84.330	15.8336
1489.567871	84.385	15.5556
1500.361816	84.439	15.2718
1511.234131	84.493	14.9819
1522.185059	84.545	14.6873
1533.215454	84.592	14.3851
1544.325806	84.636	14.0755
1555.516602	84.678	13.7623
1566.788574	84.720	13.4443
1578.142090	84.761	13.1250
1589.578003	84.802	12.8065
1601.096680	84.841	12.4825
1612.698975	84.878	12.1587
1624.385254	84.914	11.8345
1636.156250	84.948	11.5064
1648.012451	84.980	11.1736
1659.954590	85.011	10.8413
1671.983398	85.040	10.5165
1684.099243	85.068	10.1917
1696.302856	85.096	9.8633
1708.594971	85.123	9.5273
1720.976196	85.151	9.1825
1733.447144	85.179	8.8346
1746.008423	85.208	8.4836
1758.660645	85.236	8.1283
1771.404663	85.263	7.7714
1784.240967	85.288	7.4139
1797.170288	85.311	7.0558
1810.193359	85.334	6.7044
1823.310791	85.355	6.3585
1836.523193	85.374	6.0168
1849.831421	85.389	5.6832
1863.236084	85.402	5.3574
1876.737793	85.414	5.0375
1890.337524	85.425	4.7231
1904.035645	85.434	4.4120
1917.833008	85.443	4.1029
1931.730469	85.451	3.7972
1945.728638	85.460	3.4946
1959.828125	85.467	3.1974
1974.029907	85.474	2.9040
1988.334473	85.480	2.6131
2002.742798	85.487	2.3305
2017.255493	85.493	2.0579
2031.873291	85.498	1.7981
2046.597168	85.504	1.5539
2061.427734	85.508	1.3234
2076.365479	85.511	1.1092
2091.411865	85.513	0.9147
2106.566895	85.514	0.7435
2121.832031	85.515	0.5893
2137.207764	85.516	0.4476
2152.694824	85.519	0.3193
2168.294189	85.522	0.2053
2184.006592	85.527	0.1045
2199.832764	85.535	0.0185
2215.773682	85.546	-0.0523
2231.830078	85.559	-0.1047
2248.002686	85.577	-0.1376
2264.292725	85.599	-0.1544
2280.700684	85.626	-0.1618
2297.227539	85.658	-0.1587
2313.874268	85.696	-0.1388
2330.641602	85.741	-0.1127
2347.530273	85.793	-0.0941
2364.541504	85.854	-0.0854
2381.676025	85.926	-0.0936
2398.934570	86.008	-0.1346
2416.318359	86.101	-0.2260
2433.827881	86.203	-0.3873
2451.464355	86.314	-0.6477
2469.228760	86.428	-1.0295
2487.121826	86.542	-1.5347
2505.144531	86.653	-2.1583
2523.297852	86.754	-2.8915
2541.582764	86.841	-3.7136
2560.000000	86.910	-4.5983
2578.550781	86.961	-5.5130
2597.236084	86.994	-6.4246
2616.056641	87.008	-7.3067
2635.013672	87.006	-8.1388
2654.108154	86.991	-8.9014
2673.340820	86.966	-9.5860
2692.713135	86.935	-10.1896
2712.225586	86.898	-10.7140
2731.879395	86.860	-11.1635
2751.675781	86.822	-11.5473
2771.615479	86.786	-11.8718
2791.699707	86.754	-12.1440
2811.929688	86.727	-12.3740
2832.305908	86.705	-12.5609
2852.830078	86.688	-12.7139
2873.502930	86.677	-12.8408
2894.325439	86.672	-12.9497
2915.298828	86.673	-13.0455
2936.424316	86.678	-13.1325
2957.702881	86.690	-13.2194
2979.135742	86.707	-13.3134
3000.723633	86.731	-13.4206
3022.468262	86.762	-13.5411
3044.370117	86.798	-13.6855
3066.430908	86.841	-13.8685
3088.651611	86.889	-14.0943
3111.033203	86.943	-14.3640
3133.577148	87.001	-14.6873
3156.284180	87.062	-15.0738
3179.156006	87.125	-15.5276
3202.193359	87.188	-16.0535
3225.397949	87.248	-16.6528
3248.770508	87.305	-17.3288
3272.312500	87.354	-18.0773
3296.024902	87.393	-18.8897
3319.909180	87.419	-19.7564
3343.966797	87.431	-20.6550
3368.198486	87.427	-21.5602
3392.605713	87.408	-22.4454
3417.189941	87.373	-23.2806
3441.952393	87.326	-24.0398
3466.894287	87.273	-24.7040
3492.016846	87.219	-25.2649
3517.321289	87.168	-25.7336
3542.809326	87.123	-26.1307
3568.481934	87.089	-26.4787
3594.340576	87.067	-26.8059
3620.386719	87.055	-27.1356
3646.621582	87.051	-27.4870
3673.046387	87.055	-27.8764
3699.662842	87.064	-28.3093
3726.472168	87.075	-28.7927
3753.475586	87.088	-29.3323
3780.675049	87.102	-29.9314
3808.071289	87.115	-30.5953
3835.666016	87.126	-31.3291
3863.460938	87.134	-32.1363
3891.457275	87.138	-33.0186
3919.656250	87.133	-33.9705
3948.059814	87.117	-34.9817
3976.668945	87.086	-36.0453
4005.485596	87.040	-37.1495
4034.510986	86.976	-38.2761
4063.746582	86.894	-39.4004
4093.194336	86.793	-40.4973
4122.855469	86.674	-41.5425
4152.730957	86.538	-42.5147
4182.823730	86.387	-43.4002
4213.133789	86.224	-44.1783
4243.664062	86.053	-44.8343
4274.415527	85.877	-45.3637
4305.389648	85.698	-45.7658
4336.588379	85.520	-46.0369
4368.013184	85.345	-46.1858
4399.665527	85.177	-46.2225
4431.547363	85.019	-46.1518
4463.660156	84.871	-45.9862
4496.005371	84.736	-45.7517
4528.585449	84.616	-45.4681
4561.401367	84.511	-45.1528
4594.455078	84.422	-44.8300
4627.748535	84.348	-44.5232
4661.283203	84.288	-44.2578
4695.060547	84.239	-44.0527
4729.083008	84.200	-43.9187
4763.352051	84.166	-43.8698
4797.869141	84.132	-43.9183
4832.636719	84.094	-44.0615
4867.655762	84.048	-44.2930
4902.928711	83.989	-44.5970
4938.457520	83.916	-44.9574
4974.243652	83.829	-45.3515
5010.289062	83.727	-45.7570
5046.595703	83.611	-46.1486
5083.165527	83.482	-46.5041
5120.000000	83.341	-46.8001
5157.101562	83.190	-47.0190
5194.472168	83.033	-47.1575
5232.113281	82.872	-47.2137
5270.027344	82.709	-47.1810
5308.216309	82.547	-47.0576
5346.681641	82.390	-46.8494
5385.426270	82.240	-46.5731
5424.451172	82.097	-46.2425
5463.758789	81.961	-45.8669
5503.351562	81.834	-45.4548
5543.230957	81.723	-45.0166
5583.399414	81.634	-44.5883
5623.859375	81.570	-44.2428
5664.611816	81.532	-44.0627
5705.660156	81.511	-44.1353
5747.005859	81.497	-44.5160
5788.650879	81.490	-45.2499
5830.597656	81.484	-46.5829
5872.848633	81.426	-48.7299
5915.405762	81.250	-51.6457
5958.271484	80.888	-55.1132
6001.447266	80.275	-58.5809
6044.936523	79.387	-61.2101
6088.740234	78.247	-62.1353
6132.861816	76.922	-60.4266
6177.303223	75.585	-55.5886
6222.066406	74.485	-48.0880
6267.154297	73.818	-39.1954
6312.568359	73.610	-30.3424
6358.312012	73.740	-22.4808
6404.386719	74.058	-15.9310
6450.795898	74.454	-10.6156
6497.541016	74.871	-6.2910
6544.625000	75.285	-2.6973
6592.049805	75.686	0.3629
6639.818359	76.073	3.0230
6687.933594	76.451	5.3695
6736.396973	76.818	7.4678
6785.211426	77.178	9.3547
6834.379883	77.536	11.0530
6883.904785	77.896	12.5811
6933.788574	78.257	13.9352
6984.033691	78.621	15.1016
7034.642578	78.984	16.0857
7085.618652	79.346	16.8961
7136.963867	79.705	17.5132
7188.681152	80.058	17.9174
7240.773438	80.402	18.0985
7293.243164	80.732	18.0493
7346.092773	81.038	17.7725
7399.325684	81.312	17.2931
7452.944336	81.547	16.6561
7506.951172	81.741	15.9205
7561.350098	81.890	15.1554
7616.142578	81.992	14.4376
7671.332031	82.047	13.8507
7726.921875	82.058	13.4639
7782.914551	82.033	13.3305
7839.312500	81.989	13.5001
7896.119629	81.938	14.0048
7953.337891	81.895	14.8494
8010.971191	81.872	16.0192
8069.021973	81.881	17.4897
8127.493164	81.933	19.2156
8186.388672	82.038	21.1386
8245.710938	82.204	23.1939
8305.461914	82.441	25.3042
8365.647461	82.755	27.3906
8426.267578	83.150	29.3600
8487.328125	83.633	31.0958
8548.831055	84.203	32.4538
8610.779297	84.860	33.2631
8673.176758	85.592	33.3280
8736.026367	86.378	32.4115
8799.331055	87.183	30.2617
8863.094727	87.952	26.6643
8927.320312	88.609	21.5293
8992.010742	89.072	15.0105
9057.170898	89.276	7.5926
9122.802734	89.194	0.0159
9188.910156	88.845	-6.9483
9255.497070	88.293	-12.7424
9322.566406	87.612	-17.1331
9390.121094	86.871	-20.1594
9458.166016	86.119	-22.0072
9526.704102	85.390	-22.8994
9595.738281	84.704	-23.0396
9665.273438	84.071	-22.5916
9735.311523	83.496	-21.6819
9805.857422	82.982	-20.4188
9876.915039	82.527	-18.9116
9948.487305	82.124	-17.2573
10020.578125	81.760	-15.4905
10093.191406	81.428	-13.5882
10166.331055	81.129	-11.5276
10240.000000	80.871	-9.3363
10314.203125	80.654	-7.0613
10388.944336	80.478	-4.7354
10464.226562	80.338	-2.3821
10540.054688	80.233	-0.0202
10616.432617	80.162	2.3333
10693.363281	80.125	4.6623
10770.852539	80.120	6.9533
10848.902344	80.148	9.1927
10927.517578	80.207	11.3794
11006.703125	80.301	13.5019
11086.461914	80.430	15.5143
11166.798828	80.595	17.3768
11247.718750	80.798	19.0557
11329.223633	81.040	20.5058
11411.320312	81.316	21.6680
11494.011719	81.623	22.4868
11577.301758	81.954	22.8912
11661.195312	82.304	22.8103
11745.697266	82.659	22.1459
11830.811523	82.993	20.7777
11916.542969	83.271	18.6953
12002.894531	83.461	16.0161
12089.873047	83.541	12.9038
12177.480469	83.497	9.5661
12265.723633	83.327	6.2716
12354.606445	83.041	3.3119
12444.132812	82.654	0.9069
12534.308594	82.194	-0.8307
12625.136719	81.685	-1.8629
12716.624023	81.148	-2.1739
12808.773438	80.605	-1.7501
12901.591797	80.089	-0.6530
12995.082031	79.619	0.9619
13089.250000	79.202	2.9580
13184.099609	78.836	5.2593
13279.636719	78.517	7.8088
13375.867188	78.243	10.5691
13472.793945	78.009	13.5437
13570.422852	77.809	16.8007
13668.759766	77.665	20.5792
13767.809570	77.657	25.2287
13867.577148	77.937	30.5404
13968.067383	78.553	34.9578
14069.285156	79.245	37.1129
14171.237305	79.793	37.8192
14273.927734	80.236	38.3168
14377.362305	80.668	38.8925
14481.546875	81.134	39.3552
14586.486328	81.639	39.4446
14692.185547	82.170	38.9596
14798.651367	82.700	37.7696
14905.888672	83.200	35.8075
15013.902344	83.632	33.0963
15122.700195	83.961	29.7727
15232.285156	84.158	26.1104
15342.664062	84.217	22.5012
15453.843750	84.166	19.3411
15565.829102	84.063	16.8827
15678.625000	83.984	15.1330
15792.239258	83.998	13.8067
15906.675781	84.137	12.4045
16021.942383	84.376	10.4592
16138.043945	84.688	7.9010
16254.986328	85.137	4.5544
16372.777344	85.720	-0.8432
16491.421875	86.213	-9.5212
16610.923828	86.348	-21.2292
16731.294922	85.968	-34.5047
16852.535156	85.036	-47.4186
16974.656250	83.619	-58.3055
17097.662109	81.863	-66.2940
17221.558594	79.935	-71.4475
17346.353516	77.944	-74.3136
17472.052734	75.956	-75.4856
17598.662109	74.034	-75.5231
17726.189453	72.211	-74.8780
17854.640625	70.482	-73.9155
17984.021484	68.817	-72.9375
18114.341797	67.168	-72.1682
18245.605469	65.468	-71.6815
18377.820312	63.651	-71.3803
18510.994141	61.648	-70.7779
18645.132812	59.392	-69.2301
18780.242188	56.852	-66.0247
18916.332031	54.036	-60.2918
19053.408203	50.960	-50.7629
19191.476562	47.644	-35.2448
19330.546875	44.255	-11.0489
19470.623047	41.882	21.2928
19611.714844	41.925	52.1212
19753.830078	43.090	72.1956
19896.974609	43.746	81.1063
