* Measurement data measured by REW V5.20.7
* Source: ???(Realtek High Definition Audi, no input selected, L, volume: no control
* Format: 128k Log Swept Sine, 1 sweep at -12.0 dBFS with no timing reference
* Dated: 13-Oct-2022 18:29:35
* REW Settings:
*  C-weighting compensation: Off
*  Target level: 75.0 dB
* Note: 
* Measurement: Craftears C6 L
* Smoothing: 1/24 octave
* Frequency Step: 1/48 octave
* Start Frequency: 20.300 Hz
*
* Freq(Hz)	SPL(dB)	Phase(degrees)
20.299999	76.330	-6.6519
20.600000	76.283	-7.0434
20.900000	76.199	-7.6406
21.200001	76.156	-7.9734
21.400000	76.156	-8.1500
21.799999	76.198	-8.6477
22.000000	76.226	-9.0433
22.400000	76.264	-10.0888
22.700001	76.266	-10.9532
23.000000	76.250	-11.7692
23.299999	76.228	-12.5162
23.600000	76.209	-13.2340
24.000000	76.183	-14.2245
24.299999	76.152	-15.0042
24.700001	76.082	-15.9965
25.000000	76.009	-16.6005
25.400000	75.905	-17.1446
25.799999	75.818	-17.4679
26.200001	75.753	-17.7407
26.500000	75.710	-17.9681
26.900000	75.648	-18.2716
27.200001	75.603	-18.4578
27.600000	75.563	-18.6747
28.000000	75.560	-19.0515
28.500000	75.575	-20.1123
29.000000	75.520	-21.8195
29.500000	75.345	-23.5622
30.000000	75.110	-24.6508
30.400000	74.964	-25.0385
30.700001	74.908	-25.2582
31.100000	74.894	-25.7914
31.500000	74.902	-26.7482
32.000000	74.872	-28.3334
32.500000	74.779	-29.8106
33.000000	74.679	-30.8304
33.500000	74.627	-31.5242
34.000000	74.626	-32.2030
34.500000	74.641	-32.9770
35.000000	74.651	-33.7547
35.500000	74.661	-34.4907
36.000000	74.670	-35.2890
36.500000	74.654	-36.2257
37.000000	74.584	-37.1613
37.500000	74.464	-37.8233
38.200001	74.294	-38.0761
38.700001	74.232	-38.0698
39.500000	74.213	-38.5945
40.000000	74.183	-39.3972
40.599998	74.083	-40.4742
41.200001	73.943	-41.2343
41.799999	73.833	-41.6303
42.500000	73.793	-42.1468
43.099998	73.782	-43.0352
43.700001	73.723	-44.1461
44.400002	73.594	-45.1517
45.000000	73.495	-45.6398
45.500000	73.442	-46.0017
46.200001	73.381	-46.6618
46.799999	73.314	-47.2813
47.500000	73.230	-47.9151
48.200001	73.154	-48.5303
48.700001	73.101	-48.9866
49.400002	73.026	-49.5804
50.000000	72.974	-50.0501
50.799999	72.924	-50.7741
51.500000	72.873	-51.5207
52.200001	72.806	-52.2239
53.000000	72.728	-52.8675
53.799999	72.668	-53.4661
54.500000	72.619	-54.1216
55.200001	72.540	-54.8817
56.000000	72.403	-55.5809
57.000000	72.237	-55.9403
58.000000	72.151	-56.2393
59.000000	72.100	-56.9339
60.000000	72.030	-57.9446
60.799999	71.942	-58.7463
61.500000	71.858	-59.2725
62.200001	71.792	-59.6662
63.000000	71.745	-60.1462
64.000000	71.690	-60.9204
65.000000	71.605	-61.7568
66.000000	71.486	-62.3983
67.000000	71.378	-62.7068
68.000000	71.321	-63.0235
69.000000	71.277	-63.6192
70.000000	71.210	-64.3798
71.000000	71.117	-65.0808
72.000000	71.028	-65.6116
73.000000	70.964	-66.1414
74.000000	70.900	-66.7767
75.000000	70.818	-67.3878
76.199997	70.716	-67.9297
77.500000	70.629	-68.4233
78.800003	70.552	-69.0149
80.000000	70.476	-69.6404
81.199997	70.388	-70.2744
82.500000	70.293	-70.8748
83.800003	70.211	-71.4613
85.000000	70.137	-72.0345
86.199997	70.057	-72.5960
87.500000	69.961	-73.1212
88.500000	69.893	-73.4373
90.000000	69.813	-73.9972
91.199997	69.744	-74.5691
92.500000	69.663	-75.1874
93.800003	69.588	-75.7770
95.000000	69.526	-76.3035
96.199997	69.472	-76.7837
97.500000	69.418	-77.3196
98.800003	69.355	-77.8384
100.000000	69.292	-78.2632
101.500000	69.215	-78.7770
103.000000	69.142	-79.2982
104.400002	69.077	-79.7996
106.000000	69.007	-80.3473
107.500000	68.948	-80.8352
109.000000	68.884	-81.3593
110.599998	68.805	-81.8877
112.000000	68.742	-82.3365
113.800003	68.668	-82.9837
115.000000	68.620	-83.4171
117.199997	68.546	-84.1602
118.000000	68.523	-84.4258
120.599998	68.440	-85.2531
122.000000	68.389	-85.6539
124.099998	68.313	-86.2449
125.000000	68.281	-86.5136
126.500000	68.232	-87.0033
128.000000	68.184	-87.5462
131.500000	68.075	-88.6517
132.000000	68.062	-88.7783
134.000000	68.013	-89.2587
136.000000	67.960	-89.7422
138.000000	67.905	-90.2724
140.000000	67.854	-90.8613
143.000000	67.786	-91.7492
145.000000	67.744	-92.2678
147.500000	67.691	-92.9242
150.000000	67.639	-93.5528
152.500000	67.595	-94.1876
155.000000	67.543	-94.7877
157.500000	67.492	-95.3713
160.000000	67.446	-96.0050
162.500000	67.402	-96.6278
165.000000	67.359	-97.2063
167.500000	67.320	-97.8130
170.000000	67.286	-98.4649
172.500000	67.259	-99.0763
175.000000	67.233	-99.6578
177.500000	67.201	-100.2179
180.000000	67.173	-100.7697
182.500000	67.148	-101.3210
185.000000	67.130	-101.8630
187.500000	67.116	-102.4532
190.000000	67.093	-103.0382
192.500000	67.067	-103.5499
195.000000	67.047	-104.0410
197.500000	67.028	-104.5536
200.000000	67.011	-105.0616
203.000000	66.992	-105.6602
206.000000	66.973	-106.2513
209.000000	66.955	-106.8474
212.000000	66.938	-107.4655
214.000000	66.926	-107.8952
218.000000	66.904	-108.6948
220.000000	66.897	-109.0635
224.000000	66.886	-109.8394
227.000000	66.877	-110.4551
230.000000	66.871	-111.0244
233.000000	66.869	-111.5587
236.000000	66.866	-112.1027
240.000000	66.856	-112.8354
243.000000	66.850	-113.3768
247.000000	66.851	-114.1326
250.000000	66.855	-114.6809
254.000000	66.863	-115.3754
258.000000	66.876	-116.0654
262.000000	66.890	-116.7579
265.000000	66.897	-117.2784
269.000000	66.907	-117.9830
272.000000	66.918	-118.5128
276.000000	66.937	-119.1858
280.000000	66.957	-119.8565
285.000000	66.986	-120.6966
290.000000	67.018	-121.5618
295.000000	67.049	-122.4503
300.000000	67.077	-123.2812
304.000000	67.101	-123.9105
307.000000	67.120	-124.3968
311.000000	67.144	-125.0681
315.000000	67.163	-125.7325
320.000000	67.187	-126.5431
325.000000	67.215	-127.3439
330.000000	67.245	-128.1623
335.000000	67.276	-128.9640
340.000000	67.303	-129.7381
345.000000	67.330	-130.5150
350.000000	67.352	-131.2718
355.000000	67.378	-132.0181
360.000000	67.406	-132.7293
365.000000	67.431	-133.4302
370.000000	67.456	-134.1571
375.000000	67.481	-134.9004
382.000000	67.517	-135.9000
387.000000	67.544	-136.5986
395.000000	67.593	-137.6509
400.000000	67.623	-138.3037
406.000000	67.658	-139.0972
412.000000	67.694	-139.9075
418.000000	67.727	-140.7233
425.000000	67.759	-141.6219
431.000000	67.788	-142.3494
437.000000	67.824	-143.0928
444.000000	67.870	-143.9739
450.000000	67.907	-144.6719
455.000000	67.936	-145.2450
462.000000	67.975	-146.0354
468.000000	68.005	-146.7043
475.000000	68.039	-147.4870
482.000000	68.078	-148.2495
487.000000	68.109	-148.7836
494.000000	68.153	-149.5224
500.000000	68.184	-150.1606
508.000000	68.215	-151.0073
515.000000	68.245	-151.7073
522.000000	68.283	-152.4033
530.000000	68.327	-153.1959
538.000000	68.368	-153.9685
545.000000	68.402	-154.6313
552.000000	68.432	-155.2708
560.000000	68.464	-155.9599
570.000000	68.507	-156.7838
580.000000	68.547	-157.6332
590.000000	68.585	-158.4608
600.000000	68.626	-159.2429
608.000000	68.659	-159.8479
615.000000	68.687	-160.3794
622.000000	68.713	-160.9095
630.000000	68.743	-161.4750
640.000000	68.784	-162.1345
650.000000	68.823	-162.8089
660.000000	68.864	-163.4698
670.000000	68.906	-164.0544
680.000000	68.953	-164.6280
690.000000	68.993	-165.2017
700.000000	69.034	-165.7471
710.000000	69.078	-166.2574
720.000000	69.125	-166.7470
730.000000	69.170	-167.2189
740.000000	69.220	-167.6738
750.000000	69.273	-168.1197
762.000000	69.334	-168.6387
775.000000	69.398	-169.1378
788.000000	69.464	-169.5909
800.000000	69.528	-170.0124
812.000000	69.596	-170.4152
825.000000	69.670	-170.7958
838.000000	69.749	-171.1623
850.000000	69.822	-171.4979
862.000000	69.893	-171.8427
875.000000	69.970	-172.1935
885.000000	70.031	-172.4189
900.000000	70.129	-172.7517
912.000000	70.213	-173.0363
925.000000	70.309	-173.3270
938.000000	70.406	-173.5947
950.000000	70.495	-173.8481
962.000000	70.587	-174.1091
975.000000	70.688	-174.4107
988.000000	70.791	-174.7235
1000.000000	70.888	-175.0048
1015.000000	71.008	-175.3662
1030.000000	71.129	-175.7491
1044.000000	71.243	-176.1226
1060.000000	71.373	-176.5800
1075.000000	71.490	-177.0508
1090.000000	71.605	-177.5242
1106.000000	71.726	-178.0312
1120.000000	71.830	-178.4943
1138.000000	71.961	-179.1069
1150.000000	72.048	-179.5276
1172.000000	72.206	179.6712
1180.000000	72.263	179.3798
1206.000000	72.447	178.4337
1220.000000	72.551	177.9107
1241.000000	72.713	177.1010
1250.000000	72.781	176.7574
1265.000000	72.893	176.1889
1280.000000	73.002	175.6202
1315.000000	73.246	174.3697
1320.000000	73.279	174.1961
1340.000000	73.411	173.4910
1360.000000	73.537	172.7858
1380.000000	73.667	172.1154
1400.000000	73.800	171.4543
1430.000000	73.996	170.4377
1450.000000	74.122	169.7904
1475.000000	74.274	169.0189
1500.000000	74.423	168.2475
1525.000000	74.559	167.4781
1550.000000	74.679	166.7134
1575.000000	74.792	165.9404
1600.000000	74.901	165.2048
1625.000000	75.004	164.4787
1650.000000	75.100	163.7435
1675.000000	75.188	163.0345
1700.000000	75.271	162.3380
1725.000000	75.351	161.6419
1750.000000	75.429	160.9499
1775.000000	75.501	160.2692
1800.000000	75.566	159.6038
1825.000000	75.624	158.9556
1850.000000	75.677	158.3274
1875.000000	75.722	157.7305
1900.000000	75.760	157.1552
1925.000000	75.792	156.6004
1950.000000	75.815	156.0879
1975.000000	75.834	155.6195
2000.000000	75.847	155.1792
2030.000000	75.853	154.7014
2060.000000	75.854	154.2817
2090.000000	75.848	153.9171
2120.000000	75.836	153.6140
2140.000000	75.826	153.4431
2180.000000	75.799	153.1846
2200.000000	75.783	153.0943
2240.000000	75.745	152.9872
2270.000000	75.713	152.9780
2300.000000	75.680	153.0338
2330.000000	75.645	153.1437
2360.000000	75.607	153.3058
2400.000000	75.553	153.6252
2430.000000	75.510	153.9451
2470.000000	75.449	154.4651
2500.000000	75.400	154.9485
2540.000000	75.331	155.7578
2580.000000	75.259	156.7635
2620.000000	75.182	158.0376
2650.000000	75.128	159.2352
2690.000000	75.079	161.1910
2720.000000	75.074	162.9294
2760.000000	75.139	165.5053
2800.000000	75.303	168.1688
2850.000000	75.644	171.2856
2900.000000	76.100	173.9127
2950.000000	76.645	175.9611
3000.000000	77.271	177.3433
3040.000000	77.820	177.8184
3070.000000	78.248	177.7064
3110.000000	78.814	176.8532
3150.000000	79.337	175.1790
3200.000000	79.871	172.0881
3250.000000	80.226	168.3142
3300.000000	80.394	164.4220
3350.000000	80.408	160.8644
3400.000000	80.321	157.8686
3450.000000	80.179	155.4589
3500.000000	80.016	153.5389
3550.000000	79.850	151.9521
3600.000000	79.686	150.5668
3650.000000	79.520	149.2894
3700.000000	79.345	148.0688
3750.000000	79.155	146.8908
3820.000000	78.850	145.3243
3870.000000	78.604	144.2861
3950.000000	78.161	142.8475
4000.000000	77.854	142.1541
4060.000000	77.457	141.5872
4120.000000	77.036	141.3357
4180.000000	76.601	141.4075
4250.000000	76.084	141.9311
4310.000000	75.642	142.7592
4370.000000	75.209	143.9103
4440.000000	74.720	145.6134
4500.000000	74.319	147.3665
4550.000000	73.999	149.0240
4620.000000	73.577	151.5896
4680.000000	73.242	153.9878
4750.000000	72.878	157.0163
4820.000000	72.542	160.2772
4870.000000	72.319	162.7442
4940.000000	72.031	166.3722
5000.000000	71.814	169.6084
5080.000000	71.572	174.0742
5150.000000	71.403	178.1049
5220.000000	71.279	-177.7845
5300.000000	71.186	-173.0574
5380.000000	71.138	-168.3076
5450.000000	71.126	-164.1070
5520.000000	71.136	-159.8336
5600.000000	71.193	-154.7897
5700.000000	71.375	-148.3083
5800.000000	71.686	-141.9556
5900.000000	72.106	-135.8600
6000.000000	72.632	-130.0247
6080.000000	73.134	-125.6313
6150.000000	73.632	-122.0583
6220.000000	74.180	-118.7957
6300.000000	74.867	-115.4785
6400.000000	75.818	-112.1413
6500.000000	76.818	-110.0343
6600.000000	77.784	-109.3127
6700.000000	78.642	-109.5255
6800.000000	79.457	-110.0527
6900.000000	80.307	-111.1705
7000.000000	81.144	-113.5574
7100.000000	81.852	-117.3794
7200.000000	82.358	-122.2412
7300.000000	82.651	-127.6530
7400.000000	82.743	-133.3951
7500.000000	82.617	-139.4190
7620.000000	82.102	-146.5919
7750.000000	81.019	-152.6808
7880.000000	79.506	-154.8939
8000.000000	78.035	-152.8839
8120.000000	76.804	-147.9415
8250.000000	75.937	-141.1591
8380.000000	75.547	-134.7452
8500.000000	75.473	-130.3393
8620.000000	75.485	-127.9897
8750.000000	75.368	-127.7002
8850.000000	75.069	-128.4830
9000.000000	74.203	-129.6318
9120.000000	73.199	-129.3159
9250.000000	71.922	-127.0540
9380.000000	70.581	-122.8026
9500.000000	69.381	-117.4149
9620.000000	68.264	-110.9579
9750.000000	67.171	-103.1163
9880.000000	66.201	-94.6458
10000.000000	65.406	-86.4387
10150.000000	64.541	-75.8328
10300.000000	63.801	-64.9658
10440.000000	63.208	-54.7081
10600.000000	62.626	-42.9456
10750.000000	62.166	-31.9205
10900.000000	61.771	-20.8925
11060.000000	61.398	-9.0959
11200.000000	61.115	1.2361
11380.000000	60.818	14.4569
11500.000000	60.659	23.2836
11720.000000	60.435	39.6550
11800.000000	60.377	45.6991
12060.000000	60.324	65.5768
12200.000000	60.392	76.3595
12410.000000	60.656	92.7460
12500.000000	60.835	99.8473
12650.000000	61.234	111.7753
12800.000000	61.777	123.7319
13150.000000	63.686	150.7138
13200.000000	64.037	154.3598
13400.000000	65.660	168.0403
13600.000000	67.645	179.7337
13800.000000	69.928	-171.4676
14000.000000	72.257	-166.6819
14300.000000	75.133	-168.0640
14500.000000	76.246	-173.0613
14750.000000	76.753	-178.0486
15000.000000	77.012	-178.1292
15250.000000	77.741	-175.2133
15500.000000	79.291	-173.0282
15750.000000	81.494	-176.7283
16000.000000	83.296	168.0789
16250.000000	83.641	143.8083
16500.000000	82.612	119.1683
16750.000000	80.707	95.2778
17000.000000	77.747	73.2848
17250.000000	73.442	60.4572
17500.000000	68.134	59.4724
17750.000000	62.521	66.9225
18000.000000	57.222	79.2398
18250.000000	52.551	93.9477
18500.000000	48.510	105.0874
18750.000000	45.026	77.8592
19000.000000	41.931	-129.2566
19250.000000	39.058	-14.8792
19500.000000	36.408	-67.1155
19750.000000	34.108	-43.4399
20000.000000	32.699	-140.9834
