* Measurement data measured by REW V5.20.13
* Source: USB-C to 3.5mm Headphone Jack Adapter, USB-C to 3.5mm Headphone Jack Adapter, 0, volume: 1.000
* Format: 256k Log Swept Sine, 1 sweep at -12.0 dBFS with no timing reference
* Dated: Nov 18, 2022 8:36:20 PM
* REW Settings:
*  C-weighting compensation: Off
*  Target level: 75.0 dB
* Note: 
* Measurement: R_C2A035
* Smoothing: 1/24 octave
* Frequency Step: 1/48 octave
* Start Frequency: 20.300 Hz
*
* Freq(Hz)	SPL(dB)	Phase(degrees)
20.299999	101.425	-118.9951
20.600000	101.469	-119.3113
20.900000	101.556	-119.8223
21.200001	101.637	-120.1792
21.400000	101.692	-120.3767
21.799999	101.806	-120.8250
22.000000	101.862	-121.1262
22.400000	101.953	-121.8842
22.700001	101.996	-122.5070
23.000000	102.019	-123.0799
23.299999	102.036	-123.5530
23.600000	102.061	-123.9431
24.000000	102.122	-124.4376
24.299999	102.187	-124.9006
24.700001	102.282	-125.7308
25.000000	102.343	-126.4911
25.400000	102.397	-127.5616
25.799999	102.427	-128.5187
26.200001	102.457	-129.2804
26.500000	102.491	-129.7707
26.900000	102.556	-130.4369
27.200001	102.606	-131.0089
27.600000	102.656	-131.8505
28.000000	102.675	-132.6209
28.500000	102.678	-133.2035
29.000000	102.723	-133.3670
29.500000	102.844	-133.5455
30.000000	102.994	-134.2039
30.400000	103.076	-135.0640
30.700001	103.099	-135.7485
31.100000	103.087	-136.4611
31.500000	103.063	-136.8140
32.000000	103.079	-136.8964
32.500000	103.168	-137.0827
33.000000	103.272	-137.7617
33.500000	103.320	-138.7693
34.000000	103.303	-139.5953
34.500000	103.288	-139.9906
35.000000	103.333	-140.2537
35.500000	103.418	-140.8795
36.000000	103.466	-141.9225
36.500000	103.437	-142.9344
37.000000	103.376	-143.4721
37.500000	103.353	-143.5826
38.200001	103.412	-143.6656
38.700001	103.486	-143.8278
39.500000	103.671	-144.1216
40.000000	103.837	-144.6617
40.599998	104.003	-145.9725
41.200001	104.044	-147.4611
41.799999	104.003	-148.3467
42.500000	103.999	-148.6729
43.099998	104.047	-149.0860
43.700001	104.050	-149.7613
44.400002	103.957	-150.1862
45.000000	103.878	-149.7473
45.500000	103.909	-149.0322
46.200001	104.139	-148.6304
46.799999	104.373	-149.7686
47.500000	104.442	-152.3985
48.200001	104.249	-154.5731
48.700001	104.062	-155.1624
49.400002	103.916	-155.0588
50.000000	103.926	-154.9756
50.799999	104.003	-155.5009
51.500000	104.028	-156.1809
52.200001	104.036	-156.4846
53.000000	104.122	-156.5772
53.799999	104.238	-157.2089
54.500000	104.271	-157.9827
55.200001	104.279	-158.6322
56.000000	104.261	-159.6873
57.000000	104.039	-160.6029
58.000000	103.923	-159.5516
59.000000	104.123	-159.5891
60.000000	104.169	-161.1252
60.799999	104.114	-161.6876
61.500000	104.119	-161.7892
62.200001	104.164	-161.9965
63.000000	104.197	-162.3524
64.000000	104.217	-162.5200
65.000000	104.289	-162.6508
66.000000	104.345	-163.3397
67.000000	104.313	-164.0409
68.000000	104.305	-164.3827
69.000000	104.353	-165.2145
70.000000	104.312	-166.5059
71.000000	104.192	-167.1577
72.000000	104.148	-167.2036
73.000000	104.172	-167.4763
74.000000	104.168	-167.9144
75.000000	104.151	-168.1970
76.199997	104.115	-168.5752
77.500000	104.045	-168.6915
78.800003	104.016	-168.8500
80.000000	103.987	-169.1807
81.199997	103.964	-169.6440
82.500000	103.909	-170.0468
83.800003	103.888	-169.6939
85.000000	104.014	-169.2220
86.199997	104.130	-169.6457
87.500000	104.052	-169.9207
88.500000	103.976	-169.2306
90.000000	104.069	-168.4243
91.199997	104.147	-169.2797
92.500000	104.094	-170.7058
93.800003	103.990	-171.7268
95.000000	103.933	-172.2304
96.199997	103.923	-172.4805
97.500000	103.957	-172.6427
98.800003	103.977	-173.0513
100.000000	103.937	-173.3223
101.500000	103.926	-173.3886
103.000000	103.954	-174.0080
104.400002	103.937	-174.6407
106.000000	103.919	-175.0492
107.500000	103.900	-175.2568
109.000000	103.875	-175.3576
110.599998	103.854	-175.4806
112.000000	103.864	-175.6877
113.800003	103.901	-176.2833
115.000000	103.910	-176.7362
117.199997	103.890	-177.3072
118.000000	103.872	-177.4796
120.599998	103.779	-177.8802
122.000000	103.748	-178.1145
124.099998	103.712	-178.4833
125.000000	103.705	-178.5349
126.500000	103.718	-178.6035
128.000000	103.720	-178.8297
131.500000	103.642	-179.1827
132.000000	103.635	-179.2410
134.000000	103.611	-179.5194
136.000000	103.583	-179.6814
138.000000	103.553	-179.7174
140.000000	103.521	-179.7772
143.000000	103.497	179.8526
145.000000	103.497	179.4237
147.500000	103.476	179.0806
150.000000	103.447	179.1355
152.500000	103.399	179.1673
155.000000	103.357	179.0363
157.500000	103.344	178.6812
160.000000	103.347	178.3251
162.500000	103.317	178.1133
165.000000	103.246	178.0508
167.500000	103.177	177.9711
170.000000	103.140	177.8522
172.500000	103.127	177.8265
175.000000	103.119	177.8013
177.500000	103.092	177.6340
180.000000	103.061	177.4147
182.500000	103.027	177.1748
185.000000	102.982	177.0368
187.500000	102.937	176.9241
190.000000	102.889	176.7875
192.500000	102.838	176.6775
195.000000	102.796	176.6641
197.500000	102.783	176.6662
200.000000	102.777	176.6147
203.000000	102.744	176.6096
206.000000	102.680	176.6480
209.000000	102.625	176.6548
212.000000	102.597	176.6836
214.000000	102.586	176.7427
218.000000	102.565	176.7670
220.000000	102.552	176.6814
224.000000	102.516	176.6024
227.000000	102.486	176.6891
230.000000	102.457	176.7029
233.000000	102.424	176.6142
236.000000	102.391	176.5495
240.000000	102.355	176.5279
243.000000	102.327	176.4958
247.000000	102.285	176.4177
250.000000	102.248	176.4127
254.000000	102.194	176.4376
258.000000	102.143	176.4711
262.000000	102.103	176.5351
265.000000	102.071	176.5840
269.000000	102.027	176.7008
272.000000	101.995	176.8369
276.000000	101.954	176.9658
280.000000	101.912	177.0220
285.000000	101.865	177.1360
290.000000	101.816	177.2099
295.000000	101.770	177.3416
300.000000	101.718	177.6136
304.000000	101.687	177.8139
307.000000	101.671	177.9011
311.000000	101.645	178.0069
315.000000	101.609	178.1744
320.000000	101.567	178.3982
325.000000	101.529	178.5858
330.000000	101.495	178.7622
335.000000	101.465	178.9398
340.000000	101.431	179.1580
345.000000	101.394	179.4084
350.000000	101.357	179.6701
355.000000	101.320	179.9403
360.000000	101.281	-179.7850
365.000000	101.239	-179.5280
370.000000	101.197	-179.2746
375.000000	101.160	-179.0360
382.000000	101.117	-178.6924
387.000000	101.085	-178.4160
395.000000	101.031	-177.8976
400.000000	100.994	-177.6434
406.000000	100.946	-177.4247
412.000000	100.904	-177.1747
418.000000	100.877	-176.8100
425.000000	100.849	-176.3223
431.000000	100.822	-175.8987
437.000000	100.790	-175.5272
444.000000	100.755	-175.1297
450.000000	100.725	-174.7971
455.000000	100.703	-174.5159
462.000000	100.678	-174.0629
468.000000	100.657	-173.6591
475.000000	100.630	-173.2350
482.000000	100.601	-172.8064
487.000000	100.582	-172.4630
494.000000	100.558	-171.9856
500.000000	100.538	-171.6118
508.000000	100.512	-171.1313
515.000000	100.490	-170.6485
522.000000	100.469	-170.1545
530.000000	100.449	-169.6226
538.000000	100.430	-169.0986
545.000000	100.412	-168.6531
552.000000	100.396	-168.1835
560.000000	100.380	-167.5940
570.000000	100.357	-166.8952
580.000000	100.337	-166.2275
590.000000	100.321	-165.4962
600.000000	100.305	-164.7606
608.000000	100.296	-164.1891
615.000000	100.291	-163.6980
622.000000	100.284	-163.1897
630.000000	100.271	-162.5816
640.000000	100.254	-161.8316
650.000000	100.244	-161.0865
660.000000	100.237	-160.3387
670.000000	100.232	-159.5739
680.000000	100.225	-158.7972
690.000000	100.217	-157.9875
700.000000	100.209	-157.1381
710.000000	100.201	-156.2955
720.000000	100.197	-155.4541
730.000000	100.194	-154.5701
740.000000	100.187	-153.6172
750.000000	100.178	-152.6029
762.000000	100.163	-151.2183
775.000000	100.151	-149.2403
788.000000	100.248	-146.3254
800.000000	100.678	-143.4783
812.000000	101.293	-143.4399
825.000000	101.561	-145.9389
838.000000	101.479	-147.7218
850.000000	101.303	-147.9843
862.000000	101.179	-147.2592
875.000000	101.132	-146.1656
885.000000	101.133	-145.3190
900.000000	101.166	-144.1209
912.000000	101.211	-143.2228
925.000000	101.275	-142.2945
938.000000	101.349	-141.4130
950.000000	101.424	-140.6242
962.000000	101.504	-139.8567
975.000000	101.596	-139.0897
988.000000	101.692	-138.3756
1000.000000	101.783	-137.7378
1015.000000	101.899	-136.9617
1030.000000	102.019	-136.2491
1044.000000	102.136	-135.6528
1060.000000	102.268	-135.0095
1075.000000	102.389	-134.4560
1090.000000	102.512	-133.9559
1106.000000	102.652	-133.4561
1120.000000	102.777	-133.0383
1138.000000	102.935	-132.5408
1150.000000	103.042	-132.2397
1172.000000	103.232	-131.7351
1180.000000	103.300	-131.5682
1206.000000	103.517	-131.0858
1220.000000	103.631	-130.8473
1241.000000	103.801	-130.4965
1250.000000	103.873	-130.3509
1265.000000	103.990	-130.1220
1280.000000	104.104	-129.9157
1315.000000	104.367	-129.4900
1320.000000	104.404	-129.4345
1340.000000	104.551	-129.2266
1360.000000	104.688	-129.0203
1380.000000	104.821	-128.8223
1400.000000	104.957	-128.6353
1430.000000	105.160	-128.3531
1450.000000	105.293	-128.1247
1475.000000	105.461	-127.7712
1500.000000	105.644	-127.3704
1525.000000	105.855	-126.9802
1550.000000	106.090	-126.7268
1575.000000	106.331	-126.7343
1600.000000	106.554	-126.9707
1625.000000	106.751	-127.2978
1650.000000	106.927	-127.6209
1675.000000	107.092	-127.9156
1700.000000	107.249	-128.1771
1725.000000	107.401	-128.4308
1750.000000	107.552	-128.6891
1775.000000	107.702	-128.9465
1800.000000	107.851	-129.2077
1825.000000	107.998	-129.4861
1850.000000	108.145	-129.7724
1875.000000	108.295	-130.0573
1900.000000	108.450	-130.3474
1925.000000	108.612	-130.6706
1950.000000	108.780	-131.0723
1975.000000	108.952	-131.5888
2000.000000	109.122	-132.2330
2030.000000	109.313	-133.1621
2060.000000	109.484	-134.2082
2090.000000	109.635	-135.3141
2120.000000	109.768	-136.4622
2140.000000	109.849	-137.2449
2180.000000	109.990	-138.8433
2200.000000	110.050	-139.6649
2240.000000	110.151	-141.3607
2270.000000	110.206	-142.6750
2300.000000	110.241	-144.0056
2330.000000	110.255	-145.3308
2360.000000	110.247	-146.6315
2400.000000	110.204	-148.2739
2430.000000	110.151	-149.3980
2470.000000	110.060	-150.7210
2500.000000	109.984	-151.5645
2540.000000	109.883	-152.4954
2580.000000	109.797	-153.3006
2620.000000	109.726	-154.1197
2650.000000	109.671	-154.7958
2690.000000	109.582	-155.7533
2720.000000	109.496	-156.4638
2760.000000	109.359	-157.3313
2800.000000	109.201	-158.0565
2850.000000	108.985	-158.7530
2900.000000	108.753	-159.2063
2950.000000	108.509	-159.3910
3000.000000	108.263	-159.2607
3040.000000	108.074	-158.9236
3070.000000	107.941	-158.5386
3110.000000	107.785	-157.8692
3150.000000	107.660	-157.0816
3200.000000	107.548	-156.0709
3250.000000	107.475	-155.1659
3300.000000	107.418	-154.4195
3350.000000	107.358	-153.7786
3400.000000	107.288	-153.1385
3450.000000	107.218	-152.4252
3500.000000	107.156	-151.6105
3550.000000	107.107	-150.6878
3600.000000	107.076	-149.6896
3650.000000	107.063	-148.6657
3700.000000	107.065	-147.6531
3750.000000	107.077	-146.6518
3820.000000	107.107	-145.2493
3870.000000	107.136	-144.2405
3950.000000	107.202	-142.6237
4000.000000	107.258	-141.6216
4060.000000	107.341	-140.4360
4120.000000	107.440	-139.2830
4180.000000	107.557	-138.1743
4250.000000	107.713	-136.9359
4310.000000	107.859	-135.9263
4370.000000	108.014	-134.9774
4440.000000	108.211	-133.9653
4500.000000	108.398	-133.2033
4550.000000	108.566	-132.6524
4620.000000	108.818	-132.0012
4680.000000	109.054	-131.5570
4750.000000	109.359	-131.2500
4820.000000	109.684	-131.2442
4870.000000	109.923	-131.4369
4940.000000	110.260	-132.0008
5000.000000	110.549	-132.7724
5080.000000	110.925	-134.2205
5150.000000	111.239	-135.8981
5220.000000	111.526	-137.9737
5300.000000	111.802	-140.8192
5380.000000	112.004	-144.1156
5450.000000	112.103	-147.2753
5520.000000	112.121	-150.5599
5600.000000	112.042	-154.2839
5700.000000	111.806	-158.6127
5800.000000	111.455	-162.3336
5900.000000	111.032	-165.3722
6000.000000	110.569	-167.7332
6080.000000	110.187	-169.1558
6150.000000	109.854	-170.0849
6220.000000	109.529	-170.7402
6300.000000	109.174	-171.1826
6400.000000	108.765	-171.3356
6500.000000	108.405	-171.1113
6600.000000	108.101	-170.5885
6700.000000	107.858	-169.8533
6800.000000	107.687	-168.9734
6900.000000	107.610	-167.9826
7000.000000	107.638	-166.9487
7100.000000	107.769	-165.9858
7200.000000	108.010	-165.2353
7300.000000	108.364	-164.8538
7400.000000	108.838	-165.0474
7500.000000	109.434	-166.0832
7620.000000	110.311	-168.9724
7750.000000	111.353	-175.1046
7880.000000	112.179	174.5641
8000.000000	112.445	161.4014
8120.000000	112.014	146.8347
8250.000000	110.762	132.9885
8380.000000	108.971	123.3754
8500.000000	107.152	118.2233
8620.000000	105.375	115.7556
8750.000000	103.595	115.1281
8850.000000	102.347	115.6148
9000.000000	100.667	117.3867
9120.000000	99.475	119.4370
9250.000000	98.323	122.0867
9380.000000	97.294	125.0095
9500.000000	96.441	127.8713
9620.000000	95.673	130.8631
9750.000000	94.927	134.2055
9880.000000	94.264	137.6042
10000.000000	93.718	140.7666
10150.000000	93.120	144.7538
10300.000000	92.607	148.7471
10440.000000	92.207	152.4102
10600.000000	91.838	156.4314
10750.000000	91.573	160.1944
10900.000000	91.374	163.8749
11060.000000	91.230	167.5829
11200.000000	91.172	170.6550
11380.000000	91.191	174.3929
11500.000000	91.264	176.7406
11720.000000	91.528	-179.2592
11800.000000	91.670	-177.9066
12060.000000	92.359	-173.9310
12200.000000	92.920	-172.1248
12410.000000	94.054	-170.6835
12500.000000	94.648	-170.7386
12650.000000	95.820	-171.8555
12800.000000	97.279	-174.6441
13150.000000	101.485	164.8568
13200.000000	102.013	159.2220
13400.000000	103.201	129.0952
13600.000000	102.414	95.4564
13800.000000	99.985	71.0611
14000.000000	97.019	57.0526
14300.000000	93.325	45.2807
14500.000000	91.605	39.4515
14750.000000	90.135	32.5034
15000.000000	89.312	24.9360
15250.000000	89.132	16.1001
15500.000000	89.693	5.1014
15750.000000	91.050	-9.9327
16000.000000	92.863	-32.6077
16250.000000	94.187	-66.7566
16500.000000	93.968	-108.8294
16750.000000	92.027	-146.9957
17000.000000	89.151	-175.9323
17250.000000	86.288	161.0751
17500.000000	83.904	139.9113
17750.000000	81.996	118.0629
18000.000000	80.433	93.9761
18250.000000	79.171	66.2650
18500.000000	78.015	34.3018
18750.000000	76.688	-2.7040
19000.000000	75.216	-46.7635
19250.000000	73.495	-99.0276
19500.000000	71.357	-159.6074
19750.000000	68.842	138.0413
20000.000000	66.840	98.7646
