* Measurement data measured by REW V5.20.13
* Source: USB-C to 3.5mm Headphone Jack Adapter, USB-C to 3.5mm Headphone Jack Adapter, 0, volume: 1.000
* Format: 256k Log Swept Sine, 1 sweep at -12.0 dBFS with no timing reference
* Dated: Nov 18, 2022 8:26:39 PM
* REW Settings:
*  C-weighting compensation: Off
*  Target level: 75.0 dB
* Note: 
* Measurement: L_N3A000
* Smoothing: 1/24 octave
* Frequency Step: 1/48 octave
* Start Frequency: 20.300 Hz
*
* Freq(Hz)	SPL(dB)	Phase(degrees)
20.299999	103.595	-120.0436
20.600000	103.602	-120.3716
20.900000	103.625	-120.8961
21.200001	103.669	-121.2577
21.400000	103.712	-121.4757
21.799999	103.819	-122.0158
22.000000	103.876	-122.3832
22.400000	103.978	-123.2839
22.700001	104.038	-124.0291
23.000000	104.087	-124.7742
23.299999	104.127	-125.4902
23.600000	104.164	-126.1638
24.000000	104.211	-126.9805
24.299999	104.249	-127.5251
24.700001	104.311	-128.1731
25.000000	104.368	-128.6369
25.400000	104.454	-129.2922
25.799999	104.538	-130.0298
26.200001	104.606	-130.7994
26.500000	104.644	-131.3306
26.900000	104.685	-131.9212
27.200001	104.719	-132.2891
27.600000	104.775	-132.7569
28.000000	104.837	-133.2877
28.500000	104.902	-134.0330
29.000000	104.953	-134.7202
29.500000	105.016	-135.3203
30.000000	105.103	-136.0350
30.400000	105.170	-136.7913
30.700001	105.205	-137.4280
31.100000	105.229	-138.2307
31.500000	105.243	-138.8788
32.000000	105.282	-139.5196
32.500000	105.348	-140.2216
33.000000	105.402	-141.0775
33.500000	105.425	-141.8341
34.000000	105.453	-142.2518
34.500000	105.535	-142.5482
35.000000	105.655	-143.1844
35.500000	105.731	-144.2709
36.000000	105.711	-145.3163
36.500000	105.641	-145.7740
37.000000	105.623	-145.6834
37.500000	105.697	-145.6382
38.200001	105.831	-146.4184
38.700001	105.864	-147.3009
39.500000	105.859	-148.3550
40.000000	105.876	-148.9270
40.599998	105.895	-149.7901
41.200001	105.878	-150.6575
41.799999	105.844	-151.2702
42.500000	105.825	-151.6729
43.099998	105.843	-151.8107
43.700001	105.918	-151.8833
44.400002	106.067	-152.3830
45.000000	106.165	-153.3770
45.500000	106.179	-154.2901
46.200001	106.132	-155.1391
46.799999	106.102	-155.4508
47.500000	106.105	-155.7307
48.200001	106.123	-156.0823
48.700001	106.135	-156.3477
49.400002	106.152	-156.6931
50.000000	106.173	-156.9409
50.799999	106.233	-157.3345
51.500000	106.293	-157.9933
52.200001	106.304	-158.9231
53.000000	106.229	-159.7497
53.799999	106.165	-159.8579
54.500000	106.220	-159.9823
55.200001	106.293	-161.0452
56.000000	106.178	-162.7272
57.000000	105.895	-162.6131
58.000000	106.008	-161.6765
59.000000	106.199	-162.9307
60.000000	106.186	-164.3292
60.799999	106.168	-164.8850
61.500000	106.172	-165.2133
62.200001	106.195	-165.4467
63.000000	106.244	-165.8024
64.000000	106.268	-166.5056
65.000000	106.233	-167.0017
66.000000	106.206	-167.2601
67.000000	106.199	-167.5224
68.000000	106.214	-167.9128
69.000000	106.233	-168.5146
70.000000	106.235	-169.2284
71.000000	106.217	-169.8533
72.000000	106.199	-170.2576
73.000000	106.199	-170.5690
74.000000	106.193	-170.9102
75.000000	106.169	-171.1562
76.199997	106.153	-171.3840
77.500000	106.139	-171.9244
78.800003	106.088	-172.7250
80.000000	106.011	-173.3042
81.199997	105.988	-173.6501
82.500000	106.013	-174.3508
83.800003	105.982	-175.2070
85.000000	105.897	-175.5612
86.199997	105.832	-175.4125
87.500000	105.813	-175.3623
88.500000	105.778	-175.5158
90.000000	105.727	-175.5609
91.199997	105.738	-175.6980
92.500000	105.755	-176.0702
93.800003	105.754	-176.3167
95.000000	105.759	-176.3807
96.199997	105.756	-176.4133
97.500000	105.745	-176.4483
98.800003	105.734	-176.5956
100.000000	105.741	-176.9451
101.500000	105.738	-177.6790
103.000000	105.736	-178.2902
104.400002	105.733	-178.7255
106.000000	105.705	-178.8148
107.500000	105.700	-178.6957
109.000000	105.701	-178.8453
110.599998	105.708	-179.3621
112.000000	105.708	179.9086
113.800003	105.686	179.1160
115.000000	105.658	178.8036
117.199997	105.548	178.8022
118.000000	105.502	178.9260
120.599998	105.371	178.8327
122.000000	105.310	178.4556
124.099998	105.305	178.0571
125.000000	105.351	177.8979
126.500000	105.436	177.4756
128.000000	105.461	177.0338
131.500000	105.372	176.6398
132.000000	105.358	176.5597
134.000000	105.300	176.1207
136.000000	105.234	175.7456
138.000000	105.167	175.6958
140.000000	105.118	175.7776
143.000000	105.073	175.5168
145.000000	105.041	175.1733
147.500000	104.978	174.8433
150.000000	104.882	174.8854
152.500000	104.810	174.9843
155.000000	104.758	174.9261
157.500000	104.729	174.8922
160.000000	104.720	174.8917
162.500000	104.702	174.8240
165.000000	104.676	174.7194
167.500000	104.660	174.4345
170.000000	104.637	174.1054
172.500000	104.605	173.9576
175.000000	104.564	173.8828
177.500000	104.513	173.7219
180.000000	104.461	173.5213
182.500000	104.411	173.3494
185.000000	104.349	173.2092
187.500000	104.286	173.1190
190.000000	104.244	173.1073
192.500000	104.216	173.1443
195.000000	104.175	173.1742
197.500000	104.119	173.1878
200.000000	104.068	173.2524
203.000000	104.036	173.4500
206.000000	104.022	173.6736
209.000000	104.007	173.7973
212.000000	103.997	173.8163
214.000000	103.989	173.7952
218.000000	103.969	173.7649
220.000000	103.952	173.7465
224.000000	103.911	173.7335
227.000000	103.881	173.6219
230.000000	103.850	173.3912
233.000000	103.811	173.2295
236.000000	103.773	173.1917
240.000000	103.710	173.1371
243.000000	103.657	173.1411
247.000000	103.601	173.2175
250.000000	103.562	173.2266
254.000000	103.510	173.2346
258.000000	103.455	173.2313
262.000000	103.399	173.2465
265.000000	103.356	173.2936
269.000000	103.296	173.3997
272.000000	103.257	173.4933
276.000000	103.211	173.5966
280.000000	103.166	173.7071
285.000000	103.118	173.9198
290.000000	103.064	174.0705
295.000000	103.005	174.1964
300.000000	102.954	174.4550
304.000000	102.920	174.6456
307.000000	102.893	174.7765
311.000000	102.855	174.9424
315.000000	102.814	175.1043
320.000000	102.774	175.3317
325.000000	102.738	175.5841
330.000000	102.691	175.8405
335.000000	102.644	176.0819
340.000000	102.601	176.3256
345.000000	102.560	176.5927
350.000000	102.519	176.8528
355.000000	102.477	177.0929
360.000000	102.439	177.3548
365.000000	102.399	177.6682
370.000000	102.357	177.9787
375.000000	102.322	178.2717
382.000000	102.272	178.6453
387.000000	102.232	178.9359
395.000000	102.176	179.4512
400.000000	102.144	179.7795
406.000000	102.100	-179.8396
412.000000	102.054	-179.4872
418.000000	102.011	-179.1337
425.000000	101.968	-178.6634
431.000000	101.933	-178.2449
437.000000	101.901	-177.8607
444.000000	101.864	-177.4461
450.000000	101.835	-177.0645
455.000000	101.816	-176.7413
462.000000	101.791	-176.2813
468.000000	101.764	-175.8809
475.000000	101.733	-175.3763
482.000000	101.709	-174.9158
487.000000	101.688	-174.6009
494.000000	101.660	-174.1461
500.000000	101.639	-173.7271
508.000000	101.612	-173.1555
515.000000	101.589	-172.7055
522.000000	101.568	-172.2714
530.000000	101.544	-171.7301
538.000000	101.520	-171.1654
545.000000	101.502	-170.6953
552.000000	101.486	-170.2255
560.000000	101.473	-169.6512
570.000000	101.454	-168.9056
580.000000	101.439	-168.1861
590.000000	101.418	-167.4809
600.000000	101.394	-166.7798
608.000000	101.384	-166.2154
615.000000	101.379	-165.6920
622.000000	101.373	-165.1590
630.000000	101.365	-164.5668
640.000000	101.359	-163.8445
650.000000	101.359	-163.1279
660.000000	101.356	-162.3968
670.000000	101.354	-161.6722
680.000000	101.353	-160.9483
690.000000	101.353	-160.2163
700.000000	101.355	-159.4759
710.000000	101.359	-158.7429
720.000000	101.363	-157.9894
730.000000	101.373	-157.2467
740.000000	101.389	-156.5285
750.000000	101.408	-155.8114
762.000000	101.430	-154.9286
775.000000	101.459	-153.9878
788.000000	101.489	-153.0913
800.000000	101.519	-152.2881
812.000000	101.549	-151.5529
825.000000	101.579	-150.8261
838.000000	101.598	-150.1769
850.000000	101.572	-149.6344
862.000000	101.487	-148.7531
875.000000	101.414	-146.9329
885.000000	101.465	-145.2190
900.000000	101.683	-143.2771
912.000000	101.859	-142.4169
925.000000	102.006	-141.7909
938.000000	102.120	-141.2452
950.000000	102.210	-140.7194
962.000000	102.290	-140.1518
975.000000	102.372	-139.5029
988.000000	102.456	-138.8295
1000.000000	102.538	-138.2045
1015.000000	102.644	-137.4294
1030.000000	102.757	-136.6862
1044.000000	102.869	-136.0303
1060.000000	103.001	-135.3374
1075.000000	103.125	-134.7407
1090.000000	103.250	-134.1712
1106.000000	103.391	-133.6188
1120.000000	103.517	-133.1920
1138.000000	103.676	-132.6882
1150.000000	103.779	-132.3685
1172.000000	103.965	-131.8219
1180.000000	104.032	-131.6339
1206.000000	104.250	-131.0701
1220.000000	104.365	-130.7848
1241.000000	104.531	-130.4020
1250.000000	104.601	-130.2497
1265.000000	104.716	-130.0001
1280.000000	104.831	-129.7545
1315.000000	105.094	-129.2122
1320.000000	105.131	-129.1428
1340.000000	105.277	-128.8903
1360.000000	105.415	-128.6588
1380.000000	105.555	-128.4270
1400.000000	105.699	-128.2072
1430.000000	105.911	-127.9220
1450.000000	106.050	-127.7546
1475.000000	106.222	-127.5666
1500.000000	106.390	-127.3800
1525.000000	106.557	-127.1898
1550.000000	106.725	-126.9882
1575.000000	106.899	-126.8117
1600.000000	107.076	-126.7001
1625.000000	107.250	-126.6390
1650.000000	107.421	-126.6040
1675.000000	107.587	-126.5891
1700.000000	107.753	-126.5830
1725.000000	107.922	-126.5915
1750.000000	108.094	-126.6467
1775.000000	108.265	-126.7611
1800.000000	108.433	-126.9235
1825.000000	108.598	-127.1295
1850.000000	108.760	-127.3673
1875.000000	108.922	-127.6409
1900.000000	109.082	-127.9562
1925.000000	109.241	-128.3078
1950.000000	109.396	-128.7018
1975.000000	109.549	-129.1500
2000.000000	109.700	-129.6469
2030.000000	109.874	-130.3103
2060.000000	110.042	-131.0473
2090.000000	110.202	-131.8522
2120.000000	110.353	-132.7263
2140.000000	110.449	-133.3472
2180.000000	110.624	-134.6745
2200.000000	110.702	-135.3760
2240.000000	110.840	-136.8443
2270.000000	110.926	-137.9905
2300.000000	110.995	-139.1650
2330.000000	111.047	-140.3617
2360.000000	111.084	-141.5689
2400.000000	111.107	-143.1754
2430.000000	111.107	-144.3627
2470.000000	111.081	-145.9018
2500.000000	111.045	-147.0107
2540.000000	110.972	-148.4096
2580.000000	110.876	-149.6964
2620.000000	110.759	-150.8516
2650.000000	110.658	-151.6233
2690.000000	110.511	-152.5142
2720.000000	110.392	-153.0761
2760.000000	110.223	-153.6763
2800.000000	110.045	-154.0846
2850.000000	109.818	-154.2628
2900.000000	109.605	-154.0378
2950.000000	109.444	-153.4911
3000.000000	109.353	-152.9233
3040.000000	109.314	-152.6779
3070.000000	109.286	-152.6474
3110.000000	109.233	-152.7400
3150.000000	109.153	-152.8581
3200.000000	109.022	-152.8850
3250.000000	108.876	-152.7064
3300.000000	108.728	-152.3235
3350.000000	108.590	-151.7824
3400.000000	108.467	-151.1302
3450.000000	108.358	-150.3855
3500.000000	108.264	-149.5506
3550.000000	108.184	-148.6179
3600.000000	108.121	-147.6004
3650.000000	108.076	-146.5284
3700.000000	108.046	-145.4192
3750.000000	108.031	-144.2901
3820.000000	108.030	-142.6768
3870.000000	108.044	-141.5032
3950.000000	108.094	-139.6212
4000.000000	108.146	-138.4610
4060.000000	108.228	-137.1246
4120.000000	108.326	-135.8715
4180.000000	108.437	-134.6929
4250.000000	108.579	-133.3877
4310.000000	108.706	-132.3140
4370.000000	108.833	-131.2710
4440.000000	108.988	-130.0703
4500.000000	109.134	-129.0260
4550.000000	109.273	-128.1287
4620.000000	109.514	-126.9202
4680.000000	109.757	-126.0768
4750.000000	110.062	-125.3610
4820.000000	110.381	-124.8804
4870.000000	110.618	-124.6759
4940.000000	110.961	-124.5998
5000.000000	111.265	-124.7442
5080.000000	111.686	-125.2724
5150.000000	112.065	-126.0969
5220.000000	112.445	-127.3085
5300.000000	112.868	-129.2123
5380.000000	113.259	-131.6965
5450.000000	113.557	-134.3370
5520.000000	113.798	-137.3669
5600.000000	113.989	-141.2095
5700.000000	114.077	-146.3676
5800.000000	113.987	-151.5545
5900.000000	113.730	-156.3797
6000.000000	113.339	-160.5217
6080.000000	112.961	-163.2167
6150.000000	112.603	-165.1031
6220.000000	112.237	-166.5648
6300.000000	111.822	-167.7481
6400.000000	111.331	-168.5761
6500.000000	110.892	-168.8151
6600.000000	110.517	-168.6137
6700.000000	110.214	-168.0914
6800.000000	109.994	-167.3341
6900.000000	109.879	-166.4223
7000.000000	109.878	-165.4576
7100.000000	109.988	-164.5670
7200.000000	110.205	-163.9052
7300.000000	110.531	-163.6190
7400.000000	110.970	-163.8830
7500.000000	111.529	-164.9444
7620.000000	112.355	-167.7728
7750.000000	113.345	-173.6669
7880.000000	114.142	176.4818
8000.000000	114.428	163.8906
8120.000000	114.063	149.7309
8250.000000	112.910	135.8883
8380.000000	111.208	125.9030
8500.000000	109.439	120.2720
8620.000000	107.686	117.3227
8750.000000	105.909	116.2143
8850.000000	104.653	116.3570
9000.000000	102.955	117.6505
9120.000000	101.746	119.3221
9250.000000	100.568	121.5497
9380.000000	99.513	124.0933
9500.000000	98.634	126.6377
9620.000000	97.838	129.2940
9750.000000	97.062	132.2448
9880.000000	96.367	135.2386
10000.000000	95.790	138.0393
10150.000000	95.150	141.6011
10300.000000	94.607	145.2545
10440.000000	94.188	148.5792
10600.000000	93.769	152.0321
10750.000000	93.444	155.2078
10900.000000	93.194	158.3337
11060.000000	93.005	161.5855
11200.000000	92.907	164.3447
11380.000000	92.875	167.6836
11500.000000	92.911	169.7617
11720.000000	93.117	173.2240
11800.000000	93.239	174.3588
12060.000000	93.802	177.4784
12200.000000	94.209	178.7375
12410.000000	94.959	179.9598
12500.000000	95.349	-179.7726
12650.000000	96.131	-179.6790
12800.000000	97.136	179.7844
13150.000000	100.629	172.7972
13200.000000	101.250	170.5892
13400.000000	103.734	156.2394
13600.000000	105.439	130.6683
13800.000000	105.484	98.2806
14000.000000	103.861	70.9404
14300.000000	100.185	47.5093
14500.000000	98.054	38.5662
14750.000000	96.139	29.8268
15000.000000	94.959	21.5184
15250.000000	94.426	12.3123
15500.000000	94.588	1.1351
15750.000000	95.500	-13.5734
16000.000000	97.015	-34.8109
16250.000000	98.450	-67.0048
16500.000000	98.674	-110.3898
16750.000000	97.080	-154.7188
17000.000000	94.137	169.2653
17250.000000	90.829	140.4814
17500.000000	87.853	114.5959
17750.000000	85.375	88.7474
18000.000000	83.301	61.2781
18250.000000	81.497	30.9808
18500.000000	79.930	-3.0263
18750.000000	78.560	-42.0204
19000.000000	77.047	-87.8616
19250.000000	75.404	-142.0518
19500.000000	73.660	154.7629
19750.000000	71.783	89.2114
20000.000000	70.428	47.7712
