* Measurement data measured by REW V5.20.7
* Source: Mic in at rear panel (Pink)(Realtek(R) Audio), MICROPHONE (마스), L, volume: 1.000
* Format: 128k Log Swept Sine, 1 sweep at -12.0 dBFS with no timing reference
* Dated: 2022. 5. 13 오후 10:57:43
* REW Settings:
*  C-weighting compensation: Off
*  Target level: 75.0 dB
* Note: 
* Measurement: R
* Smoothing: 1/24 octave
* Frequency Step: 1/48 octave
* Start Frequency: 20.300 Hz
*
* Freq(Hz)	SPL(dB)	Phase(degrees)
20.299999	80.829	49.1958
20.600000	80.862	48.8573
20.900000	80.929	48.2430
21.200001	80.990	47.6298
21.400000	81.026	47.2168
21.799999	81.086	46.3593
22.000000	81.111	45.9141
22.400000	81.156	45.0159
22.700001	81.191	44.3438
23.000000	81.230	43.6696
23.299999	81.270	42.9936
23.600000	81.308	42.3209
24.000000	81.357	41.4416
24.299999	81.396	40.8036
24.700001	81.451	39.9811
25.000000	81.493	39.3790
25.400000	81.548	38.5914
25.799999	81.605	37.8349
26.200001	81.662	37.1347
26.500000	81.707	36.6500
26.900000	81.771	36.0315
27.200001	81.821	35.5520
27.600000	81.887	34.8455
28.000000	81.939	34.0506
28.500000	81.971	33.0144
29.000000	81.973	32.0838
29.500000	81.973	31.3259
30.000000	81.987	30.6558
30.400000	82.007	30.0921
30.700001	82.027	29.6310
31.100000	82.056	28.9813
31.500000	82.082	28.3298
32.000000	82.113	27.5581
32.500000	82.151	26.8307
33.000000	82.195	26.1160
33.500000	82.240	25.4079
34.000000	82.282	24.7173
34.500000	82.326	24.0337
35.000000	82.368	23.3357
35.500000	82.403	22.6377
36.000000	82.429	21.9850
36.500000	82.453	21.3852
37.000000	82.476	20.7826
37.500000	82.492	20.1371
38.200001	82.496	19.2626
38.700001	82.502	18.7444
39.500000	82.531	17.9304
40.000000	82.542	17.3235
40.599998	82.528	16.6407
41.200001	82.515	16.1850
41.799999	82.545	15.7490
42.500000	82.609	14.8136
43.099998	82.620	13.7595
43.700001	82.588	12.9320
44.400002	82.567	12.3870
45.000000	82.586	11.9746
45.500000	82.607	11.5297
46.200001	82.621	10.8573
46.799999	82.630	10.3212
47.500000	82.646	9.6590
48.200001	82.656	8.9346
48.700001	82.653	8.4510
49.400002	82.641	7.8619
50.000000	82.633	7.3649
50.799999	82.618	6.6334
51.500000	82.595	5.9843
52.200001	82.574	5.3739
53.000000	82.563	4.7061
53.799999	82.560	4.0803
54.500000	82.564	3.5864
55.200001	82.577	3.1128
56.000000	82.601	2.5245
57.000000	82.616	1.6761
58.000000	82.592	0.9133
59.000000	82.568	0.2878
60.000000	82.546	-0.4875
60.799999	82.510	-1.1193
61.500000	82.477	-1.6001
62.200001	82.446	-2.0576
63.000000	82.409	-2.5388
64.000000	82.387	-3.0799
65.000000	82.389	-3.7877
66.000000	82.374	-4.5187
67.000000	82.364	-5.0814
68.000000	82.362	-5.6983
69.000000	82.332	-6.2792
70.000000	82.298	-6.7653
71.000000	82.266	-7.3220
72.000000	82.222	-7.8567
73.000000	82.184	-8.3361
74.000000	82.155	-8.8316
75.000000	82.137	-9.3309
76.199997	82.125	-9.9753
77.500000	82.098	-10.6791
78.800003	82.065	-11.3005
80.000000	82.029	-11.8893
81.199997	81.977	-12.4926
82.500000	81.914	-13.0814
83.800003	81.878	-13.5996
85.000000	81.860	-14.1357
86.199997	81.827	-14.6370
87.500000	81.787	-15.0838
88.500000	81.753	-15.4650
90.000000	81.682	-16.0028
91.199997	81.633	-16.4515
92.500000	81.576	-17.0746
93.800003	81.516	-17.6133
95.000000	81.482	-18.0236
96.199997	81.464	-18.4477
97.500000	81.433	-18.9329
98.800003	81.381	-19.3646
100.000000	81.319	-19.7255
101.500000	81.237	-20.1720
103.000000	81.172	-20.6818
104.400002	81.123	-21.2168
106.000000	81.071	-21.7542
107.500000	81.021	-22.1283
109.000000	80.964	-22.4275
110.599998	80.899	-22.7541
112.000000	80.846	-23.2328
113.800003	80.743	-23.9860
115.000000	80.679	-24.2951
117.199997	80.628	-24.8486
118.000000	80.612	-25.1199
120.599998	80.525	-26.1393
122.000000	80.445	-26.5439
124.099998	80.338	-26.7322
125.000000	80.304	-26.7888
126.500000	80.248	-27.0956
128.000000	80.158	-27.7319
131.500000	79.766	-29.3928
132.000000	79.701	-29.4074
134.000000	79.545	-29.0374
136.000000	79.430	-29.1040
138.000000	79.202	-29.0295
140.000000	78.984	-28.6240
143.000000	78.759	-28.0422
145.000000	78.659	-27.3958
147.500000	78.523	-25.0935
150.000000	78.773	-21.1551
152.500000	79.276	-19.3927
155.000000	79.572	-19.9169
157.500000	79.727	-21.3759
160.000000	79.886	-24.2008
162.500000	79.815	-27.3315
165.000000	79.626	-27.1789
167.500000	79.704	-26.2312
170.000000	79.740	-26.8981
172.500000	79.635	-28.4344
175.000000	79.537	-29.7669
177.500000	79.477	-30.5222
180.000000	79.386	-30.8860
182.500000	79.243	-31.2456
185.000000	79.112	-31.6194
187.500000	79.010	-31.9630
190.000000	78.901	-32.2544
192.500000	78.790	-32.6006
195.000000	78.703	-33.0044
197.500000	78.643	-33.3092
200.000000	78.590	-33.5387
203.000000	78.509	-33.7546
206.000000	78.439	-33.8501
209.000000	78.363	-33.8648
212.000000	78.300	-33.9668
214.000000	78.254	-34.2212
218.000000	78.160	-34.5543
220.000000	78.121	-34.7024
224.000000	77.968	-35.0329
227.000000	77.842	-34.9348
230.000000	77.785	-34.9106
233.000000	77.768	-35.1641
236.000000	77.745	-35.4526
240.000000	77.653	-35.8163
243.000000	77.533	-36.1437
247.000000	77.357	-36.2410
250.000000	77.239	-36.0029
254.000000	77.134	-35.4487
258.000000	77.102	-35.0812
262.000000	77.060	-35.2036
265.000000	77.018	-35.4492
269.000000	76.941	-35.9535
272.000000	76.869	-36.1971
276.000000	76.816	-36.1568
280.000000	76.769	-36.1018
285.000000	76.683	-36.1171
290.000000	76.592	-35.9660
295.000000	76.489	-35.7349
300.000000	76.402	-35.6424
304.000000	76.323	-35.7302
307.000000	76.269	-35.7649
311.000000	76.218	-35.7524
315.000000	76.145	-35.6273
320.000000	76.061	-35.2303
325.000000	76.029	-35.0802
330.000000	75.969	-35.2734
335.000000	75.875	-35.3995
340.000000	75.790	-35.3204
345.000000	75.726	-35.1286
350.000000	75.672	-34.9964
355.000000	75.595	-34.9250
360.000000	75.512	-34.7448
365.000000	75.432	-34.5626
370.000000	75.353	-34.4672
375.000000	75.281	-34.3742
382.000000	75.190	-34.2383
387.000000	75.126	-34.2134
395.000000	75.052	-33.9127
400.000000	75.009	-33.6150
406.000000	74.940	-33.3763
412.000000	74.852	-33.1518
418.000000	74.773	-32.9270
425.000000	74.723	-32.5405
431.000000	74.682	-32.2166
437.000000	74.624	-32.0909
444.000000	74.548	-31.9827
450.000000	74.486	-31.7302
455.000000	74.439	-31.4950
462.000000	74.377	-31.0938
468.000000	74.331	-30.7626
475.000000	74.279	-30.4961
482.000000	74.222	-30.2656
487.000000	74.176	-30.0599
494.000000	74.120	-29.7228
500.000000	74.080	-29.4686
508.000000	74.031	-29.2031
515.000000	73.964	-28.8960
522.000000	73.884	-28.6003
530.000000	73.854	-28.3189
538.000000	73.853	-27.7318
545.000000	73.821	-27.2586
552.000000	73.782	-26.8456
560.000000	73.727	-26.3233
570.000000	73.669	-25.8018
580.000000	73.594	-25.3861
590.000000	73.520	-25.0187
600.000000	73.517	-24.4428
608.000000	73.525	-23.6204
615.000000	73.487	-22.9678
622.000000	73.426	-22.6561
630.000000	73.373	-22.5005
640.000000	73.346	-22.2542
650.000000	73.352	-21.7667
660.000000	73.348	-21.2325
670.000000	73.331	-20.5547
680.000000	73.314	-19.8496
690.000000	73.293	-19.3390
700.000000	73.271	-18.9306
710.000000	73.258	-18.4120
720.000000	73.261	-17.8324
730.000000	73.247	-17.3005
740.000000	73.250	-16.7417
750.000000	73.265	-16.1440
762.000000	73.267	-15.4041
775.000000	73.269	-14.6108
788.000000	73.285	-14.0786
800.000000	73.311	-13.4979
812.000000	73.359	-12.7963
825.000000	73.406	-12.0748
838.000000	73.438	-11.4014
850.000000	73.470	-10.7481
862.000000	73.503	-10.0823
875.000000	73.544	-9.3851
885.000000	73.584	-8.7964
900.000000	73.645	-7.8489
912.000000	73.689	-7.2926
925.000000	73.749	-6.8475
938.000000	73.823	-6.3298
950.000000	73.892	-5.7615
962.000000	73.964	-5.2170
975.000000	74.041	-4.7187
988.000000	74.121	-4.4401
1000.000000	74.190	-4.2594
1015.000000	74.283	-3.5076
1030.000000	74.401	-2.7564
1044.000000	74.527	-2.2734
1060.000000	74.651	-1.8879
1075.000000	74.742	-1.5318
1090.000000	74.836	-1.1501
1106.000000	74.955	-0.8434
1120.000000	75.072	-0.5863
1138.000000	75.225	-0.1891
1150.000000	75.325	-0.0142
1172.000000	75.497	0.1101
1180.000000	75.551	0.1443
1206.000000	75.718	0.3691
1220.000000	75.797	0.5327
1241.000000	75.905	0.7489
1250.000000	75.956	0.7937
1265.000000	76.059	0.8081
1280.000000	76.191	0.7838
1315.000000	76.562	0.7632
1320.000000	76.617	0.7698
1340.000000	76.834	0.8252
1360.000000	77.035	0.8606
1380.000000	77.213	0.8475
1400.000000	77.362	0.8113
1430.000000	77.557	0.6347
1450.000000	77.670	0.4486
1475.000000	77.816	0.2743
1500.000000	77.983	0.1844
1525.000000	78.138	0.1548
1550.000000	78.286	0.1024
1575.000000	78.446	0.0360
1600.000000	78.604	-0.1042
1625.000000	78.756	-0.2476
1650.000000	78.912	-0.3732
1675.000000	79.072	-0.5205
1700.000000	79.241	-0.6580
1725.000000	79.411	-0.8159
1750.000000	79.577	-1.0117
1775.000000	79.741	-1.2046
1800.000000	79.905	-1.3709
1825.000000	80.076	-1.5783
1850.000000	80.250	-1.8311
1875.000000	80.423	-2.1270
1900.000000	80.600	-2.4358
1925.000000	80.775	-2.7425
1950.000000	80.946	-3.0747
1975.000000	81.118	-3.4229
2000.000000	81.291	-3.7995
2030.000000	81.493	-4.3148
2060.000000	81.694	-4.8731
2090.000000	81.893	-5.4567
2120.000000	82.091	-6.0804
2140.000000	82.222	-6.5298
2180.000000	82.482	-7.4820
2200.000000	82.608	-7.9778
2240.000000	82.852	-9.0205
2270.000000	83.027	-9.8681
2300.000000	83.193	-10.7631
2330.000000	83.353	-11.6825
2360.000000	83.508	-12.6038
2400.000000	83.695	-13.8636
2430.000000	83.822	-14.8301
2470.000000	83.974	-16.1454
2500.000000	84.071	-17.1007
2540.000000	84.172	-18.2677
2580.000000	84.247	-19.1888
2620.000000	84.318	-19.7846
2650.000000	84.393	-19.9573
2690.000000	84.555	-19.9181
2720.000000	84.739	-19.8746
2760.000000	85.071	-20.1289
2800.000000	85.446	-21.0723
2850.000000	85.865	-23.2039
2900.000000	86.186	-25.8527
2950.000000	86.435	-28.5220
3000.000000	86.654	-31.1440
3040.000000	86.818	-33.3329
3070.000000	86.925	-35.0990
3110.000000	87.039	-37.6053
3150.000000	87.113	-40.1919
3200.000000	87.140	-43.4367
3250.000000	87.102	-46.6104
3300.000000	87.002	-49.6642
3350.000000	86.841	-52.4891
3400.000000	86.620	-54.9007
3450.000000	86.375	-56.7147
3500.000000	86.155	-58.0077
3550.000000	85.989	-59.0446
3600.000000	85.865	-60.1495
3650.000000	85.745	-61.4255
3700.000000	85.613	-62.7911
3750.000000	85.459	-64.1655
3820.000000	85.196	-66.0041
3870.000000	84.982	-67.2029
3950.000000	84.609	-68.8000
4000.000000	84.360	-69.5684
4060.000000	84.045	-70.1670
4120.000000	83.711	-70.3809
4180.000000	83.377	-70.2013
4250.000000	83.023	-69.6054
4310.000000	82.759	-68.9035
4370.000000	82.541	-68.0987
4440.000000	82.347	-67.1010
4500.000000	82.222	-66.2626
4550.000000	82.144	-65.6045
4620.000000	82.068	-64.7101
4680.000000	82.025	-63.9155
4750.000000	81.993	-63.0026
4820.000000	81.977	-62.1698
4870.000000	81.983	-61.6167
4940.000000	82.016	-60.9369
5000.000000	82.057	-60.4661
5080.000000	82.116	-60.0062
5150.000000	82.168	-59.8410
5220.000000	82.215	-59.8755
5300.000000	82.256	-60.1115
5380.000000	82.269	-60.5245
5450.000000	82.250	-60.9858
5520.000000	82.208	-61.4868
5600.000000	82.126	-62.0385
5700.000000	81.954	-62.6359
5800.000000	81.720	-62.9693
5900.000000	81.442	-62.9195
6000.000000	81.153	-62.3994
6080.000000	80.936	-61.6355
6150.000000	80.758	-60.7401
6220.000000	80.592	-59.6355
6300.000000	80.414	-58.1239
6400.000000	80.214	-55.8614
6500.000000	80.056	-53.1876
6600.000000	79.950	-50.1996
6700.000000	79.898	-46.8969
6800.000000	79.919	-43.3154
6900.000000	80.029	-39.4979
7000.000000	80.236	-35.5727
7100.000000	80.557	-31.5701
7200.000000	81.016	-27.6932
7300.000000	81.628	-24.1667
7400.000000	82.385	-21.2295
7500.000000	83.272	-19.1738
7620.000000	84.452	-18.4551
7750.000000	85.714	-20.7671
7880.000000	86.661	-26.8429
8000.000000	86.993	-35.0933
8120.000000	86.695	-43.7298
8250.000000	85.780	-50.7887
8380.000000	84.546	-54.1842
8500.000000	83.392	-54.3015
8620.000000	82.365	-52.3473
8750.000000	81.443	-48.7049
8850.000000	80.891	-45.2355
9000.000000	80.340	-39.4844
9120.000000	80.106	-34.7741
9250.000000	80.029	-29.8504
9380.000000	80.111	-25.3820
9500.000000	80.303	-21.8188
9620.000000	80.591	-18.9910
9750.000000	80.978	-17.0798
9880.000000	81.373	-16.5614
10000.000000	81.676	-17.4037
10150.000000	81.880	-19.9859
10300.000000	81.802	-23.6023
10440.000000	81.432	-26.9114
10600.000000	80.689	-29.4565
10750.000000	79.785	-30.0923
10900.000000	78.809	-28.9762
11060.000000	77.803	-26.1027
11200.000000	77.012	-22.4386
11380.000000	76.133	-16.6123
11500.000000	75.636	-12.2476
11720.000000	74.921	-3.3724
11800.000000	74.724	0.0627
12060.000000	74.332	11.5914
12200.000000	74.271	17.8609
12410.000000	74.387	27.2995
12500.000000	74.513	31.2891
12650.000000	74.827	37.7189
12800.000000	75.283	43.7000
13150.000000	76.833	54.9916
13200.000000	77.085	56.1328
13400.000000	78.091	58.9491
13600.000000	78.949	58.4934
13800.000000	79.437	54.9615
14000.000000	79.386	49.9355
14300.000000	78.330	44.8453
14500.000000	77.255	45.2034
14750.000000	75.888	49.7205
15000.000000	74.742	57.1831
15250.000000	73.920	66.2415
15500.000000	73.460	75.8353
15750.000000	73.466	85.0911
16000.000000	74.119	92.8590
16250.000000	75.420	97.0742
16500.000000	76.980	94.3572
16750.000000	77.906	81.9623
17000.000000	77.334	64.5646
17250.000000	75.193	52.7920
17500.000000	72.180	50.9437
17750.000000	69.062	56.6880
18000.000000	66.266	67.3629
18250.000000	63.964	81.0142
18500.000000	62.175	96.0773
18750.000000	60.780	111.9877
19000.000000	59.687	128.5273
19250.000000	58.852	145.2422
19500.000000	58.170	161.5814
19750.000000	57.531	175.5495
20000.000000	57.150	-177.1512
