* Measurement data measured by REW V5.20.9
* Source: Mic in at rear panel (Pink)(Realtek(R) Audio), MICROPHONE (마스), L, volume: 0.500
* Format: 256k Log Swept Sine, 1 sweep at -12.0 dBFS with no timing reference
* Dated: 2022. 9. 17 오후 10:31:47
* REW Settings:
*  C-weighting compensation: Off
*  Target level: 75.0 dB
* Note: 
* Measurement: R_Foam
* Smoothing: 1/24 octave
* Frequency Step: 1/48 octave
* Start Frequency: 20.300 Hz
*
* Freq(Hz)	SPL(dB)	Phase(degrees)
20.299999	65.859	-131.7689
20.600000	65.879	-132.0464
20.900000	65.919	-132.5284
21.200001	65.957	-132.9562
21.400000	65.980	-133.2260
21.799999	66.026	-133.7822
22.000000	66.047	-134.0847
22.400000	66.084	-134.7324
22.700001	66.107	-135.2428
23.000000	66.126	-135.7639
23.299999	66.143	-136.2857
23.600000	66.159	-136.8020
24.000000	66.184	-137.4789
24.299999	66.207	-137.9831
24.700001	66.241	-138.6649
25.000000	66.269	-139.1915
25.400000	66.302	-139.9090
25.799999	66.327	-140.6072
26.200001	66.345	-141.2283
26.500000	66.356	-141.6193
26.900000	66.376	-142.0486
27.200001	66.398	-142.3370
27.600000	66.436	-142.7400
28.000000	66.476	-143.2114
28.500000	66.510	-143.8657
29.000000	66.522	-144.4571
29.500000	66.529	-144.9036
30.000000	66.552	-145.2849
30.400000	66.582	-145.6458
30.700001	66.604	-145.9760
31.100000	66.625	-146.4712
31.500000	66.634	-146.9707
32.000000	66.636	-147.5252
32.500000	66.643	-148.0069
33.000000	66.662	-148.4936
33.500000	66.686	-149.0302
34.000000	66.705	-149.5867
34.500000	66.718	-150.1057
35.000000	66.729	-150.5647
35.500000	66.742	-150.9767
36.000000	66.758	-151.3587
36.500000	66.774	-151.7128
37.000000	66.791	-152.0356
37.500000	66.810	-152.3301
38.200001	66.839	-152.7259
38.700001	66.861	-153.0288
39.500000	66.890	-153.5860
40.000000	66.898	-153.9509
40.599998	66.900	-154.3474
41.200001	66.901	-154.6773
41.799999	66.910	-154.9821
42.500000	66.928	-155.3674
43.099998	66.945	-155.7198
43.700001	66.961	-156.0699
44.400002	66.983	-156.4857
45.000000	66.998	-156.8616
45.500000	67.006	-157.1672
46.200001	67.012	-157.5333
46.799999	67.021	-157.7845
47.500000	67.044	-158.0734
48.200001	67.071	-158.4236
48.700001	67.087	-158.7059
49.400002	67.099	-159.0940
50.000000	67.104	-159.3865
50.799999	67.108	-159.7113
51.500000	67.113	-159.9380
52.200001	67.127	-160.1394
53.000000	67.150	-160.4291
53.799999	67.161	-160.7958
54.500000	67.159	-161.0724
55.200001	67.160	-161.2729
56.000000	67.176	-161.5190
57.000000	67.194	-161.9402
58.000000	67.198	-162.3336
59.000000	67.205	-162.6343
60.000000	67.220	-162.9532
60.799999	67.228	-163.2272
61.500000	67.232	-163.4441
62.200001	67.237	-163.6408
63.000000	67.243	-163.8612
64.000000	67.252	-164.1370
65.000000	67.261	-164.4280
66.000000	67.268	-164.7379
67.000000	67.273	-165.0397
68.000000	67.274	-165.3204
69.000000	67.274	-165.5347
70.000000	67.285	-165.7022
71.000000	67.302	-165.9284
72.000000	67.308	-166.1908
73.000000	67.307	-166.4037
74.000000	67.309	-166.5852
75.000000	67.310	-166.7621
76.199997	67.315	-166.9443
77.500000	67.328	-167.1785
78.800003	67.333	-167.4378
80.000000	67.338	-167.6162
81.199997	67.350	-167.8210
82.500000	67.359	-168.0871
83.800003	67.364	-168.3564
85.000000	67.366	-168.5968
86.199997	67.367	-168.8230
87.500000	67.368	-169.0322
88.500000	67.371	-169.1928
90.000000	67.371	-169.4184
91.199997	67.375	-169.5463
92.500000	67.388	-169.7163
93.800003	67.398	-169.9240
95.000000	67.406	-170.0975
96.199997	67.412	-170.2574
97.500000	67.418	-170.3932
98.800003	67.426	-170.5213
100.000000	67.431	-170.6525
101.500000	67.432	-170.8167
103.000000	67.429	-170.9920
104.400002	67.426	-171.1321
106.000000	67.433	-171.2950
107.500000	67.443	-171.4896
109.000000	67.450	-171.6742
110.599998	67.457	-171.8383
112.000000	67.462	-171.9615
113.800003	67.466	-172.1064
115.000000	67.467	-172.1908
117.199997	67.470	-172.3490
118.000000	67.471	-172.4137
120.599998	67.478	-172.6511
122.000000	67.483	-172.8161
124.099998	67.488	-173.0255
125.000000	67.492	-173.0919
126.500000	67.500	-173.1818
128.000000	67.508	-173.2581
131.500000	67.515	-173.5069
132.000000	67.515	-173.5388
134.000000	67.520	-173.6621
136.000000	67.530	-173.8137
138.000000	67.535	-173.9507
140.000000	67.534	-174.0541
143.000000	67.527	-174.1806
145.000000	67.521	-174.2653
147.500000	67.522	-174.3866
150.000000	67.527	-174.5419
152.500000	67.538	-174.6712
155.000000	67.552	-174.7662
157.500000	67.563	-174.8492
160.000000	67.568	-174.9568
162.500000	67.571	-175.0778
165.000000	67.576	-175.1982
167.500000	67.575	-175.3017
170.000000	67.574	-175.3807
172.500000	67.578	-175.4641
175.000000	67.588	-175.5486
177.500000	67.596	-175.6299
180.000000	67.595	-175.7079
182.500000	67.587	-175.7666
185.000000	67.581	-175.8150
187.500000	67.584	-175.8958
190.000000	67.588	-176.0010
192.500000	67.590	-176.0662
195.000000	67.591	-176.0946
197.500000	67.594	-176.1378
200.000000	67.601	-176.2116
203.000000	67.609	-176.3189
206.000000	67.611	-176.3799
209.000000	67.616	-176.4073
212.000000	67.623	-176.4208
214.000000	67.626	-176.4238
218.000000	67.629	-176.4566
220.000000	67.631	-176.5033
224.000000	67.635	-176.6230
227.000000	67.636	-176.6852
230.000000	67.638	-176.7213
233.000000	67.644	-176.7462
236.000000	67.652	-176.7627
240.000000	67.658	-176.7899
243.000000	67.659	-176.8299
247.000000	67.658	-176.8743
250.000000	67.656	-176.8973
254.000000	67.654	-176.9358
258.000000	67.649	-176.9444
262.000000	67.644	-176.9439
265.000000	67.644	-176.9579
269.000000	67.650	-176.9860
272.000000	67.654	-177.0031
276.000000	67.660	-177.0299
280.000000	67.667	-177.0676
285.000000	67.673	-177.0721
290.000000	67.681	-177.0287
295.000000	67.689	-176.9886
300.000000	67.694	-176.9716
304.000000	67.697	-176.9460
307.000000	67.703	-176.9300
311.000000	67.712	-176.9378
315.000000	67.717	-176.9446
320.000000	67.727	-176.9092
325.000000	67.735	-176.8877
330.000000	67.740	-176.9083
335.000000	67.750	-176.9138
340.000000	67.759	-176.8735
345.000000	67.768	-176.8245
350.000000	67.773	-176.7749
355.000000	67.772	-176.7140
360.000000	67.769	-176.6417
365.000000	67.769	-176.5885
370.000000	67.770	-176.5507
375.000000	67.773	-176.5029
382.000000	67.774	-176.4223
387.000000	67.773	-176.3696
395.000000	67.774	-176.2453
400.000000	67.777	-176.1681
406.000000	67.778	-176.0914
412.000000	67.781	-176.0163
418.000000	67.780	-175.9093
425.000000	67.778	-175.8061
431.000000	67.780	-175.7243
437.000000	67.785	-175.6074
444.000000	67.792	-175.4557
450.000000	67.796	-175.3338
455.000000	67.801	-175.2498
462.000000	67.811	-175.1260
468.000000	67.820	-174.9826
475.000000	67.830	-174.8195
482.000000	67.836	-174.7076
487.000000	67.838	-174.6087
494.000000	67.844	-174.4447
500.000000	67.850	-174.3056
508.000000	67.859	-174.1439
515.000000	67.869	-173.9912
522.000000	67.876	-173.8003
530.000000	67.885	-173.5585
538.000000	67.896	-173.3381
545.000000	67.905	-173.1558
552.000000	67.914	-172.9550
560.000000	67.925	-172.7174
570.000000	67.940	-172.4496
580.000000	67.960	-172.1583
590.000000	67.976	-171.8487
600.000000	67.992	-171.5414
608.000000	68.008	-171.2776
615.000000	68.020	-171.0294
622.000000	68.032	-170.7841
630.000000	68.044	-170.5123
640.000000	68.061	-170.1481
650.000000	68.080	-169.7681
660.000000	68.102	-169.3920
670.000000	68.127	-169.0060
680.000000	68.151	-168.6186
690.000000	68.175	-168.2491
700.000000	68.200	-167.8553
710.000000	68.225	-167.4259
720.000000	68.253	-166.9843
730.000000	68.280	-166.5584
740.000000	68.314	-166.1396
750.000000	68.354	-165.7038
762.000000	68.398	-165.1645
775.000000	68.448	-164.5681
788.000000	68.502	-163.9784
800.000000	68.556	-163.4332
812.000000	68.614	-162.8876
825.000000	68.683	-162.3011
838.000000	68.758	-161.6974
850.000000	68.833	-161.1449
862.000000	68.911	-160.5972
875.000000	68.997	-160.0166
885.000000	69.068	-159.5988
900.000000	69.180	-158.9820
912.000000	69.274	-158.4812
925.000000	69.383	-157.9679
938.000000	69.494	-157.4803
950.000000	69.603	-157.0640
962.000000	69.716	-156.6832
975.000000	69.841	-156.2929
988.000000	69.970	-155.9384
1000.000000	70.092	-155.6509
1015.000000	70.239	-155.3126
1030.000000	70.389	-155.0245
1044.000000	70.537	-154.8151
1060.000000	70.708	-154.6349
1075.000000	70.861	-154.5207
1090.000000	71.015	-154.4533
1106.000000	71.191	-154.4183
1120.000000	71.346	-154.4262
1138.000000	71.541	-154.4863
1150.000000	71.667	-154.5591
1172.000000	71.894	-154.7525
1180.000000	71.975	-154.8374
1206.000000	72.229	-155.1801
1220.000000	72.362	-155.3994
1241.000000	72.555	-155.7436
1250.000000	72.635	-155.8984
1265.000000	72.765	-156.1745
1280.000000	72.891	-156.4639
1315.000000	73.175	-157.1425
1320.000000	73.214	-157.2384
1340.000000	73.364	-157.6246
1360.000000	73.504	-158.0131
1380.000000	73.643	-158.4057
1400.000000	73.785	-158.8027
1430.000000	73.993	-159.3878
1450.000000	74.130	-159.7722
1475.000000	74.298	-160.2411
1500.000000	74.463	-160.7017
1525.000000	74.623	-161.1618
1550.000000	74.783	-161.6252
1575.000000	74.943	-162.0845
1600.000000	75.103	-162.5486
1625.000000	75.263	-163.0230
1650.000000	75.423	-163.5031
1675.000000	75.583	-163.9837
1700.000000	75.744	-164.4872
1725.000000	75.905	-165.0138
1750.000000	76.064	-165.5597
1775.000000	76.221	-166.1347
1800.000000	76.377	-166.7339
1825.000000	76.535	-167.3540
1850.000000	76.692	-168.0062
1875.000000	76.848	-168.6914
1900.000000	77.002	-169.4061
1925.000000	77.155	-170.1528
1950.000000	77.306	-170.9371
1975.000000	77.453	-171.7610
2000.000000	77.598	-172.6219
2030.000000	77.767	-173.7046
2060.000000	77.930	-174.8376
2090.000000	78.087	-176.0242
2120.000000	78.235	-177.2632
2140.000000	78.330	-178.1159
2180.000000	78.507	-179.8789
2200.000000	78.588	179.2127
2240.000000	78.733	177.3444
2270.000000	78.829	175.9065
2300.000000	78.912	174.4500
2330.000000	78.983	172.9817
2360.000000	79.041	171.5051
2400.000000	79.098	169.5373
2430.000000	79.126	168.0739
2470.000000	79.145	166.1502
2500.000000	79.147	164.7340
2540.000000	79.132	162.8985
2580.000000	79.098	161.1377
2620.000000	79.048	159.4595
2650.000000	78.999	158.2595
2690.000000	78.924	156.7422
2720.000000	78.861	155.6703
2760.000000	78.768	154.3311
2800.000000	78.668	153.0902
2850.000000	78.536	151.6767
2900.000000	78.399	150.4144
2950.000000	78.260	149.2989
3000.000000	78.121	148.3212
3040.000000	78.012	147.6315
3070.000000	77.933	147.1606
3110.000000	77.831	146.5898
3150.000000	77.732	146.0832
3200.000000	77.616	145.5309
3250.000000	77.507	145.0584
3300.000000	77.407	144.6508
3350.000000	77.315	144.2919
3400.000000	77.234	143.9745
3450.000000	77.166	143.6925
3500.000000	77.114	143.4252
3550.000000	77.071	143.1670
3600.000000	77.034	142.9128
3650.000000	77.004	142.6554
3700.000000	76.980	142.3800
3750.000000	76.961	142.0797
3820.000000	76.938	141.6085
3870.000000	76.918	141.2305
3950.000000	76.877	140.5999
4000.000000	76.855	140.1762
4060.000000	76.827	139.6022
4120.000000	76.796	138.9556
4180.000000	76.758	138.2501
4250.000000	76.703	137.3636
4310.000000	76.640	136.5485
4370.000000	76.556	135.6918
4440.000000	76.432	134.6510
4500.000000	76.309	133.7427
4550.000000	76.193	132.9835
4620.000000	76.011	131.9307
4680.000000	75.837	131.0649
4750.000000	75.611	130.1248
4820.000000	75.362	129.2720
4870.000000	75.170	128.7279
4940.000000	74.882	128.0747
5000.000000	74.620	127.6272
5080.000000	74.255	127.2128
5150.000000	73.926	127.0237
5220.000000	73.590	127.0052
5300.000000	73.199	127.2111
5380.000000	72.803	127.6583
5450.000000	72.460	128.2443
5520.000000	72.123	128.9882
5600.000000	71.748	130.0175
5700.000000	71.293	131.5850
5800.000000	70.864	133.4437
5900.000000	70.462	135.5236
6000.000000	70.089	137.8101
6080.000000	69.812	139.7825
6150.000000	69.587	141.6024
6220.000000	69.383	143.4988
6300.000000	69.172	145.7531
6400.000000	68.944	148.6617
6500.000000	68.755	151.6196
6600.000000	68.604	154.6198
6700.000000	68.502	157.6013
6800.000000	68.450	160.4524
6900.000000	68.452	163.0214
7000.000000	68.481	165.0760
7100.000000	68.445	166.4412
7200.000000	68.194	167.6465
7300.000000	67.685	170.6317
7400.000000	67.245	176.8601
7500.000000	67.299	-175.4421
7620.000000	67.904	-167.6941
7750.000000	68.758	-161.7873
7880.000000	69.613	-157.5661
8000.000000	70.451	-154.9959
8120.000000	71.304	-154.4466
8250.000000	71.856	-156.7501
8380.000000	71.671	-156.9912
8500.000000	71.848	-151.4254
8620.000000	72.959	-146.9675
8750.000000	74.330	-147.6318
8850.000000	75.185	-151.2427
9000.000000	75.951	-159.8891
9120.000000	76.030	-167.9425
9250.000000	75.594	-175.7652
9380.000000	74.752	178.8431
9500.000000	73.786	176.5180
9620.000000	72.788	176.6447
9750.000000	71.812	179.1988
9880.000000	71.092	-176.2628
10000.000000	70.788	-171.2326
10150.000000	70.890	-165.9565
10300.000000	71.152	-163.1920
10440.000000	71.259	-161.6623
10600.000000	71.333	-159.1851
10750.000000	71.620	-156.3387
10900.000000	72.167	-154.4527
11060.000000	72.885	-154.5126
11200.000000	73.532	-156.4726
11380.000000	74.279	-162.0445
11500.000000	74.601	-167.9727
11720.000000	74.427	177.7762
11800.000000	74.056	172.4699
12060.000000	71.855	159.8378
12200.000000	70.297	157.0089
12410.000000	67.891	157.1896
12500.000000	66.909	158.4644
12650.000000	65.389	161.6918
12800.000000	64.030	165.8999
13150.000000	61.434	177.9619
13200.000000	61.125	179.8408
13400.000000	60.019	-172.4403
13600.000000	59.108	-164.5390
13800.000000	58.392	-156.6325
14000.000000	57.864	-148.8778
14300.000000	57.384	-137.6612
14500.000000	57.266	-130.7629
14750.000000	57.356	-123.3295
15000.000000	57.706	-117.7756
15250.000000	58.278	-115.2250
15500.000000	58.921	-117.1954
15750.000000	59.246	-124.8439
16000.000000	58.724	-136.6516
16250.000000	57.103	-147.7973
16500.000000	54.566	-154.1338
16750.000000	51.513	-154.8081
17000.000000	48.235	-150.6844
17250.000000	44.849	-141.8692
17500.000000	41.414	-126.8913
17750.000000	38.206	-105.2183
18000.000000	36.081	-80.7968
18250.000000	35.299	-59.5263
18500.000000	34.744	-42.1539
18750.000000	33.837	-23.9997
19000.000000	32.946	-1.2775
19250.000000	32.841	24.4457
19500.000000	33.848	48.3119
19750.000000	35.529	66.4269
20000.000000	37.248	77.6842
