* Measurement data measured by REW V5.20.5
* Source: 마이크(7- USB Sound Device       , MICROPHONE (마스), L, volume: 0.560
* Format: 128k Log Swept Sine, 2 sweeps at -15.0 dBFS with no timing reference
* Dated: 2022. 4. 19 오후 8:45:08
* REW Settings:
*  C-weighting compensation: Off
*  Target level: 75.0 dB
* Note: 
* Measurement: L
* Smoothing: 1/24 octave
* Frequency Step: 1/48 octave
* Start Frequency: 20.300 Hz
*
* Freq(Hz)	SPL(dB)	Phase(degrees)
20.299999	119.288	-138.7913
20.600000	119.309	-139.1350
20.900000	119.348	-139.7450
21.200001	119.379	-140.3174
21.400000	119.395	-140.6847
21.799999	119.420	-141.4283
22.000000	119.430	-141.8167
22.400000	119.446	-142.6208
22.700001	119.455	-143.2422
23.000000	119.464	-143.8784
23.299999	119.472	-144.5263
23.600000	119.482	-145.1832
24.000000	119.496	-146.0674
24.299999	119.509	-146.7314
24.700001	119.530	-147.6105
25.000000	119.548	-148.2604
25.400000	119.575	-149.1094
25.799999	119.604	-149.9330
26.200001	119.635	-150.7245
26.500000	119.659	-151.2934
26.900000	119.690	-152.0158
27.200001	119.713	-152.5306
27.600000	119.743	-153.1833
28.000000	119.770	-153.8023
28.500000	119.800	-154.5359
29.000000	119.824	-155.2316
29.500000	119.842	-155.8985
30.000000	119.854	-156.5511
30.400000	119.861	-157.0720
30.700001	119.863	-157.4643
31.100000	119.864	-157.9898
31.500000	119.862	-158.5163
32.000000	119.859	-159.1754
32.500000	119.855	-159.8387
33.000000	119.853	-160.5096
33.500000	119.853	-161.1857
34.000000	119.854	-161.8586
34.500000	119.856	-162.5189
35.000000	119.860	-163.1607
35.500000	119.865	-163.7797
36.000000	119.871	-164.3727
36.500000	119.877	-164.9389
37.000000	119.882	-165.4811
37.500000	119.886	-166.0035
38.200001	119.887	-166.7070
38.700001	119.884	-167.1907
39.500000	119.875	-167.9394
40.000000	119.866	-168.4015
40.599998	119.855	-168.9600
41.200001	119.843	-169.5268
41.799999	119.829	-170.0987
42.500000	119.814	-170.7659
43.099998	119.802	-171.3318
43.700001	119.791	-171.8869
44.400002	119.781	-172.5146
45.000000	119.773	-173.0325
45.500000	119.766	-173.4495
46.200001	119.756	-174.0112
46.799999	119.746	-174.4731
47.500000	119.733	-174.9922
48.200001	119.717	-175.4960
48.700001	119.704	-175.8520
49.400002	119.685	-176.3522
50.000000	119.667	-176.7838
50.799999	119.641	-177.3548
51.500000	119.620	-177.8460
52.200001	119.601	-178.3330
53.000000	119.580	-178.8844
53.799999	119.560	-179.4190
54.500000	119.542	-179.8667
55.200001	119.524	179.7039
56.000000	119.503	179.2309
57.000000	119.474	178.6581
58.000000	119.443	178.0947
59.000000	119.409	177.5310
60.000000	119.374	176.9750
60.799999	119.347	176.5377
61.500000	119.325	176.1568
62.200001	119.302	175.7807
63.000000	119.277	175.3647
64.000000	119.245	174.8687
65.000000	119.212	174.3912
66.000000	119.179	173.9244
67.000000	119.144	173.4678
68.000000	119.109	173.0183
69.000000	119.074	172.5720
70.000000	119.039	172.1328
71.000000	119.004	171.7051
72.000000	118.970	171.2909
73.000000	118.935	170.8892
74.000000	118.900	170.4969
75.000000	118.864	170.1123
76.199997	118.820	169.6621
77.500000	118.772	169.1863
78.800003	118.724	168.7250
80.000000	118.681	168.3147
81.199997	118.636	167.9210
82.500000	118.589	167.5093
83.800003	118.541	167.0994
85.000000	118.496	166.7234
86.199997	118.452	166.3541
87.500000	118.407	165.9598
88.500000	118.372	165.6535
90.000000	118.316	165.1984
91.199997	118.268	164.8906
92.500000	118.220	164.5859
93.800003	118.173	164.2826
95.000000	118.131	164.0040
96.199997	118.087	163.7195
97.500000	118.038	163.4185
98.800003	117.989	163.1289
100.000000	117.946	162.8666
101.500000	117.891	162.5403
103.000000	117.836	162.2226
104.400002	117.784	161.9443
106.000000	117.726	161.6375
107.500000	117.671	161.3547
109.000000	117.617	161.0832
110.599998	117.561	160.8049
112.000000	117.512	160.5675
113.800003	117.447	160.2776
115.000000	117.403	160.0930
117.199997	117.323	159.7640
118.000000	117.294	159.6467
120.599998	117.202	159.2905
122.000000	117.155	159.1057
124.099998	117.084	158.8324
125.000000	117.052	158.7222
126.500000	117.000	158.5476
128.000000	116.949	158.3817
131.500000	116.832	158.0101
132.000000	116.815	157.9588
134.000000	116.749	157.7604
136.000000	116.682	157.5707
138.000000	116.616	157.3933
140.000000	116.550	157.2268
143.000000	116.451	156.9913
145.000000	116.386	156.8481
147.500000	116.307	156.6748
150.000000	116.230	156.5116
152.500000	116.154	156.3535
155.000000	116.074	156.2180
157.500000	115.995	156.1137
160.000000	115.918	156.0227
162.500000	115.845	155.9360
165.000000	115.771	155.8574
167.500000	115.698	155.7884
170.000000	115.625	155.7261
172.500000	115.553	155.6731
175.000000	115.484	155.6339
177.500000	115.415	155.6047
180.000000	115.347	155.5829
182.500000	115.278	155.5756
185.000000	115.212	155.5811
187.500000	115.147	155.5876
190.000000	115.083	155.5989
192.500000	115.021	155.6248
195.000000	114.962	155.6580
197.500000	114.904	155.6958
200.000000	114.848	155.7427
203.000000	114.782	155.8097
206.000000	114.718	155.8681
209.000000	114.655	155.9174
212.000000	114.593	155.9673
214.000000	114.553	155.9971
218.000000	114.473	156.0438
220.000000	114.433	156.0690
224.000000	114.356	156.1378
227.000000	114.298	156.1965
230.000000	114.238	156.2442
233.000000	114.180	156.2867
236.000000	114.123	156.3311
240.000000	114.047	156.3967
243.000000	113.990	156.4557
247.000000	113.914	156.5450
250.000000	113.856	156.6221
254.000000	113.780	156.7309
258.000000	113.705	156.8438
262.000000	113.632	156.9738
265.000000	113.579	157.0823
269.000000	113.510	157.2262
272.000000	113.457	157.3322
276.000000	113.388	157.4828
280.000000	113.320	157.6477
285.000000	113.239	157.8663
290.000000	113.158	158.0883
295.000000	113.079	158.3062
300.000000	113.003	158.5286
304.000000	112.943	158.7127
307.000000	112.898	158.8557
311.000000	112.839	159.0510
315.000000	112.781	159.2511
320.000000	112.711	159.5065
325.000000	112.643	159.7670
330.000000	112.577	160.0359
335.000000	112.511	160.2998
340.000000	112.446	160.5636
345.000000	112.383	160.8418
350.000000	112.322	161.1283
355.000000	112.262	161.4090
360.000000	112.204	161.6843
365.000000	112.147	161.9622
370.000000	112.091	162.2491
375.000000	112.037	162.5417
382.000000	111.961	162.9539
387.000000	111.907	163.2488
395.000000	111.827	163.7236
400.000000	111.778	164.0245
406.000000	111.720	164.3886
412.000000	111.662	164.7480
418.000000	111.607	165.1093
425.000000	111.545	165.5375
431.000000	111.493	165.9138
437.000000	111.442	166.2953
444.000000	111.385	166.7404
450.000000	111.337	167.1129
455.000000	111.298	167.4213
462.000000	111.243	167.8558
468.000000	111.198	168.2319
475.000000	111.147	168.6719
482.000000	111.099	169.1167
487.000000	111.066	169.4415
494.000000	111.020	169.8954
500.000000	110.980	170.2809
508.000000	110.930	170.7888
515.000000	110.887	171.2338
522.000000	110.845	171.6867
530.000000	110.798	172.2083
538.000000	110.754	172.7323
545.000000	110.717	173.1906
552.000000	110.680	173.6497
560.000000	110.640	174.1754
570.000000	110.591	174.8324
580.000000	110.545	175.4930
590.000000	110.500	176.1593
600.000000	110.458	176.8381
608.000000	110.426	177.3790
615.000000	110.398	177.8470
622.000000	110.371	178.3129
630.000000	110.342	178.8488
640.000000	110.309	179.5269
650.000000	110.277	-179.7936
660.000000	110.247	-179.1096
670.000000	110.220	-178.4092
680.000000	110.196	-177.7062
690.000000	110.174	-177.0124
700.000000	110.153	-176.3175
710.000000	110.134	-175.6158
720.000000	110.118	-174.9115
730.000000	110.104	-174.2038
740.000000	110.093	-173.4922
750.000000	110.085	-172.7863
762.000000	110.079	-171.9441
775.000000	110.076	-171.0251
788.000000	110.078	-170.0974
800.000000	110.083	-169.2432
812.000000	110.092	-168.3872
825.000000	110.107	-167.4623
838.000000	110.126	-166.5493
850.000000	110.147	-165.7137
862.000000	110.173	-164.8889
875.000000	110.206	-164.0003
885.000000	110.232	-163.3213
900.000000	110.278	-162.3217
912.000000	110.320	-161.5395
925.000000	110.367	-160.7034
938.000000	110.417	-159.8857
950.000000	110.465	-159.1350
962.000000	110.516	-158.3666
975.000000	110.579	-157.5136
988.000000	110.656	-156.6545
1000.000000	110.749	-155.9043
1015.000000	110.888	-155.2219
1030.000000	110.998	-154.8695
1044.000000	111.060	-154.5295
1060.000000	111.121	-153.9751
1075.000000	111.184	-153.3823
1090.000000	111.254	-152.7952
1106.000000	111.331	-152.1986
1120.000000	111.400	-151.7098
1138.000000	111.488	-151.1154
1150.000000	111.547	-150.7326
1172.000000	111.656	-150.0422
1180.000000	111.695	-149.7919
1206.000000	111.825	-148.9825
1220.000000	111.897	-148.5596
1241.000000	112.008	-147.9599
1250.000000	112.057	-147.7195
1265.000000	112.139	-147.3441
1280.000000	112.219	-146.9982
1315.000000	112.397	-146.2818
1320.000000	112.422	-146.1854
1340.000000	112.515	-145.8062
1360.000000	112.604	-145.4352
1380.000000	112.692	-145.0553
1400.000000	112.778	-144.6697
1430.000000	112.906	-144.0853
1450.000000	112.991	-143.6907
1475.000000	113.099	-143.1981
1500.000000	113.209	-142.7109
1525.000000	113.321	-142.2236
1550.000000	113.435	-141.7395
1575.000000	113.553	-141.2641
1600.000000	113.673	-140.8028
1625.000000	113.796	-140.3446
1650.000000	113.923	-139.8998
1675.000000	114.053	-139.4739
1700.000000	114.186	-139.0641
1725.000000	114.322	-138.6745
1750.000000	114.462	-138.3102
1775.000000	114.604	-137.9732
1800.000000	114.750	-137.6645
1825.000000	114.899	-137.3892
1850.000000	115.051	-137.1515
1875.000000	115.205	-136.9515
1900.000000	115.361	-136.7907
1925.000000	115.520	-136.6737
1950.000000	115.680	-136.6032
1975.000000	115.842	-136.5775
2000.000000	116.005	-136.5965
2030.000000	116.203	-136.6842
2060.000000	116.400	-136.8503
2090.000000	116.598	-137.0987
2120.000000	116.794	-137.4306
2140.000000	116.924	-137.6996
2180.000000	117.179	-138.3552
2200.000000	117.304	-138.7411
2240.000000	117.546	-139.6322
2270.000000	117.719	-140.4058
2300.000000	117.884	-141.2639
2330.000000	118.040	-142.2051
2360.000000	118.184	-143.2281
2400.000000	118.358	-144.6992
2430.000000	118.474	-145.8750
2470.000000	118.604	-147.5279
2500.000000	118.685	-148.8144
2540.000000	118.768	-150.5693
2580.000000	118.823	-152.3488
2620.000000	118.848	-154.1206
2650.000000	118.850	-155.4250
2690.000000	118.828	-157.1103
2720.000000	118.796	-158.3209
2760.000000	118.734	-159.8484
2800.000000	118.652	-161.2633
2850.000000	118.525	-162.8464
2900.000000	118.377	-164.2122
2950.000000	118.212	-165.3487
3000.000000	118.038	-166.2412
3040.000000	117.895	-166.7834
3070.000000	117.788	-167.0927
3110.000000	117.648	-167.3841
3150.000000	117.515	-167.5507
3200.000000	117.362	-167.6218
3250.000000	117.222	-167.5976
3300.000000	117.090	-167.5107
3350.000000	116.963	-167.3568
3400.000000	116.839	-167.1174
3450.000000	116.719	-166.7811
3500.000000	116.607	-166.3398
3550.000000	116.504	-165.7944
3600.000000	116.413	-165.1624
3650.000000	116.335	-164.4551
3700.000000	116.270	-163.6807
3750.000000	116.218	-162.8499
3820.000000	116.169	-161.6091
3870.000000	116.151	-160.6761
3950.000000	116.152	-159.1205
4000.000000	116.173	-158.1178
4060.000000	116.219	-156.8898
4120.000000	116.287	-155.6412
4180.000000	116.379	-154.3963
4250.000000	116.515	-152.9775
4310.000000	116.657	-151.8078
4370.000000	116.822	-150.6967
4440.000000	117.044	-149.4923
4500.000000	117.261	-148.5633
4550.000000	117.458	-147.8819
4620.000000	117.762	-147.0955
4680.000000	118.045	-146.6079
4750.000000	118.400	-146.3154
4820.000000	118.776	-146.3931
4870.000000	119.049	-146.7279
4940.000000	119.411	-147.6437
5000.000000	119.671	-148.7094
5080.000000	119.970	-149.8833
5150.000000	120.313	-150.6955
5220.000000	120.733	-152.1727
5300.000000	121.175	-155.0736
5380.000000	121.509	-158.9762
5450.000000	121.696	-162.8957
5520.000000	121.780	-167.0509
5600.000000	121.747	-171.8201
5700.000000	121.531	-177.3776
5800.000000	121.157	177.9331
5900.000000	120.678	174.3526
6000.000000	120.144	171.9206
6080.000000	119.708	170.7400
6150.000000	119.333	170.2069
6220.000000	118.976	170.0828
6300.000000	118.599	170.3547
6400.000000	118.182	171.1956
6500.000000	117.828	172.4775
6600.000000	117.547	174.0887
6700.000000	117.342	175.9377
6800.000000	117.217	177.9507
6900.000000	117.176	-179.9413
7000.000000	117.225	-177.8187
7100.000000	117.373	-175.7797
7200.000000	117.624	-173.9490
7300.000000	117.979	-172.4575
7400.000000	118.448	-171.4589
7500.000000	119.036	-171.1820
7620.000000	119.896	-172.3000
7750.000000	120.957	-176.3099
7880.000000	121.958	175.3701
8000.000000	122.516	163.2350
8120.000000	122.431	148.2656
8250.000000	121.519	132.8905
8380.000000	119.979	122.0402
8500.000000	118.305	116.5916
8620.000000	116.615	114.4515
8750.000000	114.902	114.5609
8850.000000	113.702	115.7648
9000.000000	112.099	118.7742
9120.000000	110.972	121.8954
9250.000000	109.890	125.7594
9380.000000	108.938	129.9933
9500.000000	108.162	134.1407
9620.000000	107.474	138.4579
9750.000000	106.823	143.2760
9880.000000	106.261	148.2023
10000.000000	105.816	152.8277
10150.000000	105.356	158.6837
10300.000000	104.997	164.5831
10440.000000	104.751	170.0952
10600.000000	104.573	176.3709
10750.000000	104.505	-177.7759
10900.000000	104.534	-171.9778
11060.000000	104.678	-165.9019
11200.000000	104.905	-160.7236
11380.000000	105.343	-154.3198
11500.000000	105.737	-150.2677
11720.000000	106.706	-143.5031
11800.000000	107.148	-141.3390
12060.000000	108.985	-136.1516
12200.000000	110.242	-135.2851
12410.000000	112.330	-138.6757
12500.000000	113.172	-142.6097
12650.000000	114.238	-153.0258
12800.000000	114.610	-167.0502
13150.000000	112.538	165.5573
13200.000000	112.027	163.5368
13400.000000	109.900	159.7373
13600.000000	107.967	160.5593
13800.000000	106.377	163.9081
14000.000000	105.116	168.7092
14300.000000	103.780	177.4399
14500.000000	103.231	-176.2306
14750.000000	102.926	-168.1516
15000.000000	103.081	-160.3606
15250.000000	103.789	-153.5509
15500.000000	105.188	-149.1000
15750.000000	107.233	-150.2681
16000.000000	109.123	-162.5252
16250.000000	109.510	174.1056
16500.000000	107.829	153.0565
16750.000000	104.855	144.1704
17000.000000	101.805	144.2771
17250.000000	99.284	148.6338
17500.000000	97.317	155.1255
17750.000000	95.848	162.6603
18000.000000	94.867	170.3140
18250.000000	94.378	176.8562
18500.000000	94.316	-179.6353
18750.000000	94.367	178.3923
19000.000000	93.890	170.2330
19250.000000	92.265	161.0666
19500.000000	89.379	159.1862
19750.000000	85.802	166.0995
20000.000000	83.156	173.0979
