* Measurement data measured by REW V5.20.5
* Source: Input device not selected, no input selected, L, volume: no control
* Format: 256k Log Swept Sine, 1 sweep at -12.0 dBFS with no timing reference
* Dated: Jul 25, 2022 12:23:08 PM
* REW Settings:
*  C-weighting compensation: Off
*  Target level: 75.0 dB
* Note: ; 
* Measurement: Kato Steel Foam R
* Smoothing: 1/24 octave
* Frequency Step: 1/48 octave
* Start Frequency: 20.300 Hz
*
* Freq(Hz)	SPL(dB)	Phase(degrees)
20.299999	101.987	13.9601
20.600000	101.980	13.7869
20.900000	101.967	13.4326
21.200001	101.966	13.0423
21.400000	101.973	12.7587
21.799999	101.996	12.1265
22.000000	102.008	11.7927
22.400000	102.028	11.1425
22.700001	102.035	10.7158
23.000000	102.036	10.3606
23.299999	102.030	10.0725
23.600000	102.020	9.8280
24.000000	102.001	9.5100
24.299999	101.986	9.2381
24.700001	101.963	8.7981
25.000000	101.948	8.4097
25.400000	101.936	7.8328
25.799999	101.935	7.2243
26.200001	101.944	6.6286
26.500000	101.951	6.2208
26.900000	101.952	5.7764
27.200001	101.942	5.5465
27.600000	101.918	5.3945
28.000000	101.890	5.3833
28.500000	101.866	5.4033
29.000000	101.862	5.2071
29.500000	101.862	4.6663
30.000000	101.848	3.8994
30.400000	101.823	3.2891
30.700001	101.801	2.9045
31.100000	101.776	2.5140
31.500000	101.758	2.2259
32.000000	101.742	1.9141
32.500000	101.724	1.5954
33.000000	101.701	1.2748
33.500000	101.681	0.9596
34.000000	101.670	0.6207
34.500000	101.663	0.2383
35.000000	101.650	-0.1580
35.500000	101.633	-0.5272
36.000000	101.617	-0.8710
36.500000	101.607	-1.2263
37.000000	101.599	-1.6114
37.500000	101.588	-2.0013
38.200001	101.565	-2.4848
38.700001	101.545	-2.7725
39.500000	101.514	-3.1865
40.000000	101.499	-3.4544
40.599998	101.483	-3.8030
41.200001	101.466	-4.1583
41.799999	101.447	-4.4888
42.500000	101.426	-4.8583
43.099998	101.406	-5.1980
43.700001	101.376	-5.5361
44.400002	101.332	-5.8522
45.000000	101.297	-6.0775
45.500000	101.274	-6.3059
46.200001	101.247	-6.7393
46.799999	101.224	-7.1370
47.500000	101.207	-7.4875
48.200001	101.198	-7.7190
48.700001	101.185	-7.8818
49.400002	101.146	-8.1817
50.000000	101.107	-8.5518
50.799999	101.078	-9.3051
51.500000	101.069	-10.1410
52.200001	101.055	-10.8446
53.000000	101.034	-11.2419
53.799999	101.008	-11.2841
54.500000	100.978	-11.1266
55.200001	100.948	-10.9428
56.000000	100.909	-10.9948
57.000000	100.873	-11.4660
58.000000	100.943	-12.3063
59.000000	100.980	-13.3093
60.000000	100.849	-13.3135
60.799999	100.744	-12.8893
61.500000	100.695	-12.9161
62.200001	100.652	-13.2801
63.000000	100.590	-13.6133
64.000000	100.510	-13.7964
65.000000	100.448	-14.1781
66.000000	100.445	-14.5096
67.000000	100.494	-14.5575
68.000000	100.472	-14.7332
69.000000	100.365	-15.1603
70.000000	100.303	-15.5883
71.000000	100.319	-15.8174
72.000000	100.336	-16.0772
73.000000	100.320	-16.8846
74.000000	100.256	-17.9955
75.000000	100.156	-18.2540
76.199997	100.085	-17.5344
77.500000	100.030	-17.3412
78.800003	99.975	-17.6221
80.000000	99.931	-17.9000
81.199997	99.869	-18.1482
82.500000	99.817	-18.4724
83.800003	99.765	-18.7191
85.000000	99.713	-18.8723
86.199997	99.661	-19.0957
87.500000	99.620	-19.4028
88.500000	99.604	-19.6842
90.000000	99.568	-20.0900
91.199997	99.514	-20.2185
92.500000	99.463	-20.2987
93.800003	99.417	-20.4438
95.000000	99.364	-20.5848
96.199997	99.305	-20.8013
97.500000	99.246	-21.0886
98.800003	99.188	-21.1691
100.000000	99.117	-21.0995
101.500000	99.028	-21.2276
103.000000	99.019	-21.6765
104.400002	99.033	-21.9807
106.000000	98.979	-22.0655
107.500000	98.884	-22.1820
109.000000	98.820	-22.3352
110.599998	98.778	-22.4479
112.000000	98.732	-22.5278
113.800003	98.661	-22.6743
115.000000	98.624	-22.8024
117.199997	98.573	-23.0558
118.000000	98.552	-23.1318
120.599998	98.459	-23.3317
122.000000	98.398	-23.3454
124.099998	98.314	-23.4398
125.000000	98.282	-23.5000
126.500000	98.231	-23.5519
128.000000	98.180	-23.5531
131.500000	98.074	-23.6268
132.000000	98.060	-23.6478
134.000000	97.999	-23.6519
136.000000	97.941	-23.6932
138.000000	97.883	-23.8769
140.000000	97.816	-23.9497
143.000000	97.704	-23.9307
145.000000	97.645	-24.0320
147.500000	97.567	-24.1672
150.000000	97.484	-24.1723
152.500000	97.424	-24.3482
155.000000	97.335	-24.4205
157.500000	97.224	-24.3528
160.000000	97.156	-24.3172
162.500000	97.103	-24.2610
165.000000	97.047	-24.1867
167.500000	96.986	-24.1666
170.000000	96.919	-24.0862
172.500000	96.864	-24.0759
175.000000	96.811	-24.2167
177.500000	96.752	-24.1855
180.000000	96.687	-24.0066
182.500000	96.628	-23.9404
185.000000	96.569	-23.9230
187.500000	96.511	-23.8610
190.000000	96.455	-23.7650
192.500000	96.402	-23.6583
195.000000	96.350	-23.5511
197.500000	96.294	-23.4866
200.000000	96.238	-23.4487
203.000000	96.179	-23.3587
206.000000	96.123	-23.2361
209.000000	96.062	-23.1062
212.000000	96.001	-23.0581
214.000000	95.963	-23.0577
218.000000	95.881	-22.9507
220.000000	95.833	-22.7962
224.000000	95.748	-22.4449
227.000000	95.688	-22.1842
230.000000	95.631	-21.9676
233.000000	95.570	-21.8738
236.000000	95.518	-21.8397
240.000000	95.473	-21.7308
243.000000	95.424	-21.4880
247.000000	95.355	-21.1899
250.000000	95.319	-20.9997
254.000000	95.272	-20.7544
258.000000	95.210	-20.5275
262.000000	95.145	-20.3049
265.000000	95.102	-20.1652
269.000000	95.049	-19.9960
272.000000	95.009	-19.8378
276.000000	94.966	-19.6180
280.000000	94.927	-19.4387
285.000000	94.859	-19.1464
290.000000	94.785	-18.8262
295.000000	94.728	-18.5427
300.000000	94.677	-18.2731
304.000000	94.635	-18.0571
307.000000	94.602	-17.8939
311.000000	94.560	-17.6698
315.000000	94.511	-17.4583
320.000000	94.446	-17.1933
325.000000	94.396	-16.9235
330.000000	94.351	-16.6046
335.000000	94.309	-16.2633
340.000000	94.263	-15.9251
345.000000	94.206	-15.5900
350.000000	94.158	-15.2680
355.000000	94.118	-14.9747
360.000000	94.071	-14.6978
365.000000	94.025	-14.3697
370.000000	93.983	-14.0518
375.000000	93.943	-13.7448
382.000000	93.889	-13.2975
387.000000	93.850	-12.9689
395.000000	93.795	-12.4774
400.000000	93.759	-12.1563
406.000000	93.716	-11.7955
412.000000	93.676	-11.4182
418.000000	93.636	-11.0371
425.000000	93.593	-10.5817
431.000000	93.557	-10.2017
437.000000	93.526	-9.8156
444.000000	93.496	-9.3306
450.000000	93.466	-8.9168
455.000000	93.441	-8.5901
462.000000	93.412	-8.1471
468.000000	93.388	-7.7733
475.000000	93.360	-7.3647
482.000000	93.334	-6.9514
487.000000	93.314	-6.6284
494.000000	93.285	-6.1961
500.000000	93.264	-5.8240
508.000000	93.241	-5.3115
515.000000	93.220	-4.8756
522.000000	93.196	-4.4383
530.000000	93.168	-3.9513
538.000000	93.141	-3.4595
545.000000	93.117	-3.0015
552.000000	93.095	-2.5435
560.000000	93.071	-2.0456
570.000000	93.043	-1.4364
580.000000	93.020	-0.7928
590.000000	92.999	-0.1434
600.000000	92.981	0.5239
608.000000	92.966	1.0462
615.000000	92.953	1.5035
622.000000	92.944	1.9453
630.000000	92.939	2.4373
640.000000	92.928	3.0918
650.000000	92.919	3.7621
660.000000	92.913	4.4042
670.000000	92.905	5.0169
680.000000	92.901	5.6383
690.000000	92.903	6.2672
700.000000	92.904	6.8995
710.000000	92.907	7.5360
720.000000	92.915	8.1858
730.000000	92.925	8.8622
740.000000	92.935	9.5272
750.000000	92.947	10.1709
762.000000	92.965	10.9384
775.000000	92.982	11.7734
788.000000	93.005	12.6121
800.000000	93.034	13.3752
812.000000	93.066	14.1340
825.000000	93.102	14.9550
838.000000	93.142	15.7618
850.000000	93.182	16.5012
862.000000	93.222	17.2584
875.000000	93.269	18.0435
885.000000	93.309	18.6244
900.000000	93.375	19.5237
912.000000	93.432	20.2315
925.000000	93.501	20.9680
938.000000	93.574	21.6695
950.000000	93.642	22.2951
962.000000	93.712	22.9102
975.000000	93.790	23.5579
988.000000	93.871	24.1687
1000.000000	93.950	24.6929
1015.000000	94.051	25.3145
1030.000000	94.156	25.9123
1044.000000	94.255	26.4340
1060.000000	94.371	26.9845
1075.000000	94.476	27.4437
1090.000000	94.576	27.8427
1106.000000	94.684	28.2308
1120.000000	94.780	28.5536
1138.000000	94.902	28.9149
1150.000000	94.983	29.1137
1172.000000	95.129	29.4008
1180.000000	95.182	29.4866
1206.000000	95.355	29.7097
1220.000000	95.451	29.7988
1241.000000	95.600	29.8989
1250.000000	95.665	29.9217
1265.000000	95.771	29.9403
1280.000000	95.873	29.9375
1315.000000	96.097	29.8961
1320.000000	96.128	29.8872
1340.000000	96.249	29.8315
1360.000000	96.367	29.7524
1380.000000	96.484	29.6727
1400.000000	96.599	29.5930
1430.000000	96.765	29.4634
1450.000000	96.871	29.3910
1475.000000	96.999	29.2972
1500.000000	97.125	29.2004
1525.000000	97.243	29.1231
1550.000000	97.348	29.0355
1575.000000	97.448	28.9448
1600.000000	97.546	28.8659
1625.000000	97.643	28.7863
1650.000000	97.739	28.7028
1675.000000	97.833	28.6116
1700.000000	97.926	28.5182
1725.000000	98.021	28.4290
1750.000000	98.117	28.3348
1775.000000	98.215	28.2273
1800.000000	98.314	28.1173
1825.000000	98.411	28.0009
1850.000000	98.508	27.8779
1875.000000	98.606	27.7449
1900.000000	98.703	27.5952
1925.000000	98.797	27.4349
1950.000000	98.891	27.2669
1975.000000	98.984	27.0894
2000.000000	99.077	26.8996
2030.000000	99.188	26.6585
2060.000000	99.298	26.3950
2090.000000	99.406	26.1138
2120.000000	99.512	25.8190
2140.000000	99.581	25.6117
2180.000000	99.718	25.1802
2200.000000	99.786	24.9506
2240.000000	99.917	24.4694
2270.000000	100.014	24.0885
2300.000000	100.108	23.6922
2330.000000	100.200	23.2809
2360.000000	100.291	22.8517
2400.000000	100.409	22.2631
2430.000000	100.494	21.8079
2470.000000	100.605	21.1725
2500.000000	100.685	20.6804
2540.000000	100.789	20.0068
2580.000000	100.889	19.3105
2620.000000	100.984	18.5986
2650.000000	101.053	18.0547
2690.000000	101.140	17.3076
2720.000000	101.202	16.7350
2760.000000	101.281	15.9672
2800.000000	101.355	15.1919
2850.000000	101.442	14.2016
2900.000000	101.520	13.1898
2950.000000	101.592	12.1608
3000.000000	101.657	11.1178
3040.000000	101.703	10.2719
3070.000000	101.736	9.6290
3110.000000	101.777	8.7654
3150.000000	101.813	7.8947
3200.000000	101.851	6.7948
3250.000000	101.881	5.6905
3300.000000	101.904	4.5761
3350.000000	101.919	3.4596
3400.000000	101.925	2.3306
3450.000000	101.922	1.1980
3500.000000	101.911	0.0697
3550.000000	101.891	-1.0477
3600.000000	101.862	-2.1632
3650.000000	101.823	-3.2644
3700.000000	101.778	-4.3451
3750.000000	101.725	-5.3973
3820.000000	101.642	-6.8383
3870.000000	101.579	-7.8539
3950.000000	101.472	-9.4624
4000.000000	101.395	-10.4534
4060.000000	101.292	-11.6234
4120.000000	101.175	-12.7682
4180.000000	101.045	-13.8636
4250.000000	100.876	-15.0703
4310.000000	100.715	-16.0156
4370.000000	100.542	-16.8701
4440.000000	100.331	-17.7209
4500.000000	100.149	-18.3255
4550.000000	100.002	-18.7693
4620.000000	99.798	-19.3649
4680.000000	99.615	-19.8587
4750.000000	99.386	-20.3679
4820.000000	99.144	-20.7544
4870.000000	98.964	-20.9487
4940.000000	98.705	-21.1027
5000.000000	98.480	-21.1313
5080.000000	98.181	-21.0384
5150.000000	97.923	-20.8373
5220.000000	97.670	-20.5310
5300.000000	97.387	-20.0638
5380.000000	97.110	-19.4681
5450.000000	96.872	-18.8524
5520.000000	96.637	-18.1522
5600.000000	96.375	-17.2590
5700.000000	96.061	-16.0057
5800.000000	95.768	-14.6305
5900.000000	95.495	-13.1335
6000.000000	95.243	-11.5333
6080.000000	95.059	-10.1919
6150.000000	94.912	-8.9865
6220.000000	94.777	-7.7519
6300.000000	94.635	-6.3116
6400.000000	94.481	-4.4678
6500.000000	94.350	-2.5935
6600.000000	94.244	-0.6947
6700.000000	94.160	1.2211
6800.000000	94.102	3.1293
6900.000000	94.073	5.0144
7000.000000	94.072	6.8701
7100.000000	94.099	8.7060
7200.000000	94.158	10.4982
7300.000000	94.245	12.2060
7400.000000	94.352	13.7777
7500.000000	94.475	15.2096
7620.000000	94.640	16.7758
7750.000000	94.828	18.2607
7880.000000	95.021	19.4894
8000.000000	95.210	20.3762
8120.000000	95.408	21.0042
8250.000000	95.629	21.3522
8380.000000	95.846	21.3435
8500.000000	96.033	21.0247
8620.000000	96.194	20.4123
8750.000000	96.326	19.4755
8850.000000	96.392	18.5963
9000.000000	96.432	17.1152
9120.000000	96.414	15.8830
9250.000000	96.343	14.6148
9380.000000	96.226	13.5041
9500.000000	96.087	12.6658
9620.000000	95.930	12.0471
9750.000000	95.756	11.6521
9880.000000	95.589	11.5486
10000.000000	95.450	11.6925
10150.000000	95.311	12.1367
10300.000000	95.225	12.7993
10440.000000	95.206	13.5351
10600.000000	95.268	14.3912
10750.000000	95.422	15.0628
10900.000000	95.677	15.4206
11060.000000	96.066	15.1738
11200.000000	96.496	14.1275
11380.000000	97.140	11.1460
11500.000000	97.582	7.7897
11720.000000	98.203	-1.8625
11800.000000	98.297	-6.4547
12060.000000	97.835	-23.2668
12200.000000	97.076	-31.7011
12410.000000	95.463	-41.2456
12500.000000	94.672	-44.0239
12650.000000	93.314	-47.0739
12800.000000	91.973	-48.5041
13150.000000	89.135	-47.6713
13200.000000	88.769	-47.2365
13400.000000	87.403	-45.0145
13600.000000	86.192	-42.2504
13800.000000	85.154	-39.1706
14000.000000	84.261	-35.8812
14300.000000	83.071	-30.7405
14500.000000	82.337	-27.2947
14750.000000	81.468	-23.0333
15000.000000	80.630	-18.7326
15250.000000	79.784	-14.3409
15500.000000	78.920	-9.6345
15750.000000	78.049	-4.4637
16000.000000	77.182	1.1952
16250.000000	76.386	7.2929
16500.000000	75.697	13.0568
16750.000000	74.954	17.1176
17000.000000	73.525	24.0457
17250.000000	72.046	45.1693
17500.000000	72.707	63.7597
17750.000000	73.552	70.5427
18000.000000	73.904	74.0060
18250.000000	73.986	77.1270
18500.000000	73.927	80.1227
18750.000000	73.736	83.2116
19000.000000	73.421	86.6871
19250.000000	73.009	90.6133
19500.000000	72.506	95.1089
19750.000000	71.945	99.5698
