* Measurement data measured by REW V5.20.13
* Source: USB-C to 3.5mm Headphone Jack Adapter, USB-C to 3.5mm Headphone Jack Adapter, 0, volume: 1.000
* Format: 256k Log Swept Sine, 1 sweep at -12.0 dBFS with no timing reference
* Dated: 2022. 11. 13 ¿ÀÈÄ 1:11:44
* REW Settings:
*  C-weighting compensation: Off
*  Target level: 75.0 dB
* Note: 
* Measurement: Nov 13
* Smoothing: 1/24 octave
* Frequency Step: 1/48 octave
* Start Frequency: 20.300 Hz
*
* Freq(Hz)	SPL(dB)	Phase(degrees)
20.299999	102.573	-111.4845
20.600000	102.624	-112.2600
20.900000	102.709	-113.6562
21.200001	102.744	-114.9840
21.400000	102.742	-115.7576
21.799999	102.704	-116.9873
22.000000	102.687	-117.4363
22.400000	102.686	-118.0599
22.700001	102.731	-118.4597
23.000000	102.814	-119.0002
23.299999	102.913	-119.7824
23.600000	103.007	-120.8010
24.000000	103.096	-122.3941
24.299999	103.131	-123.5957
24.700001	103.148	-125.0226
25.000000	103.158	-125.9175
25.400000	103.186	-126.9387
25.799999	103.237	-127.9081
26.200001	103.297	-128.9254
26.500000	103.338	-129.7151
26.900000	103.380	-130.7496
27.200001	103.404	-131.4760
27.600000	103.434	-132.3679
28.000000	103.465	-133.2048
28.500000	103.505	-134.2281
29.000000	103.541	-135.2293
29.500000	103.574	-136.1844
30.000000	103.611	-137.1191
30.400000	103.644	-137.8908
30.700001	103.666	-138.4908
31.100000	103.691	-139.3008
31.500000	103.711	-140.0944
32.000000	103.734	-141.0438
32.500000	103.761	-141.9715
33.000000	103.789	-142.9090
33.500000	103.816	-143.8404
34.000000	103.840	-144.7269
34.500000	103.865	-145.5633
35.000000	103.891	-146.3753
35.500000	103.915	-147.1753
36.000000	103.937	-147.9479
36.500000	103.959	-148.6878
37.000000	103.983	-149.4235
37.500000	104.003	-150.1811
38.200001	104.015	-151.2407
38.700001	104.015	-151.9401
39.500000	104.021	-152.9587
40.000000	104.031	-153.5931
40.599998	104.045	-154.3817
41.200001	104.056	-155.1731
41.799999	104.066	-155.9484
42.500000	104.081	-156.8490
43.099998	104.091	-157.6188
43.700001	104.097	-158.3562
44.400002	104.104	-159.1575
45.000000	104.112	-159.8156
45.500000	104.119	-160.3637
46.200001	104.129	-161.1417
46.799999	104.135	-161.8211
47.500000	104.135	-162.6149
48.200001	104.132	-163.3651
48.700001	104.133	-163.8649
49.400002	104.145	-164.5727
50.000000	104.158	-165.2491
50.799999	104.159	-166.2103
51.500000	104.145	-166.9677
52.200001	104.135	-167.5983
53.000000	104.140	-168.2685
53.799999	104.153	-168.9916
54.500000	104.160	-169.6642
55.200001	104.159	-170.3351
56.000000	104.154	-171.0750
57.000000	104.141	-171.9575
58.000000	104.126	-172.7649
59.000000	104.121	-173.5344
60.000000	104.118	-174.3934
60.799999	104.103	-175.1178
61.500000	104.083	-175.7104
62.200001	104.062	-176.2418
63.000000	104.045	-176.8102
64.000000	104.031	-177.5632
65.000000	104.008	-178.3580
66.000000	103.976	-179.0872
67.000000	103.949	-179.7565
68.000000	103.928	179.5766
69.000000	103.910	178.8784
70.000000	103.885	178.1508
71.000000	103.851	177.4468
72.000000	103.814	176.8249
73.000000	103.785	176.2631
74.000000	103.764	175.6747
75.000000	103.740	175.0411
76.199997	103.703	174.3055
77.500000	103.666	173.5425
78.800003	103.627	172.7752
80.000000	103.588	172.1179
81.199997	103.555	171.5023
82.500000	103.519	170.8192
83.800003	103.474	170.1613
85.000000	103.429	169.5934
86.199997	103.384	169.0589
87.500000	103.341	168.4656
88.500000	103.307	167.9873
90.000000	103.254	167.2979
91.199997	103.214	166.7784
92.500000	103.171	166.2402
93.800003	103.127	165.7446
95.000000	103.087	165.3025
96.199997	103.048	164.8570
97.500000	103.005	164.3575
98.800003	102.960	163.8585
100.000000	102.919	163.4098
101.500000	102.865	162.9123
103.000000	102.820	162.4587
104.400002	102.779	161.9984
106.000000	102.727	161.4706
107.500000	102.685	160.9999
109.000000	102.649	160.5297
110.599998	102.609	160.0805
112.000000	102.577	159.7342
113.800003	102.530	159.2742
115.000000	102.496	158.9312
117.199997	102.427	158.1574
118.000000	102.398	157.8535
120.599998	102.315	157.1278
122.000000	102.304	156.8387
124.099998	102.296	156.3352
125.000000	102.287	156.1157
126.500000	102.267	155.7505
128.000000	102.243	155.3574
131.500000	102.183	154.3084
132.000000	102.175	154.1462
134.000000	102.143	153.4828
136.000000	102.108	152.8069
138.000000	102.070	152.1401
140.000000	102.029	151.4974
143.000000	101.973	150.4879
145.000000	101.924	149.7475
147.500000	101.850	148.8220
150.000000	101.768	147.8658
152.500000	101.682	146.9030
155.000000	101.595	145.9765
157.500000	101.504	145.0578
160.000000	101.396	144.1478
162.500000	101.274	143.2606
165.000000	101.144	142.4102
167.500000	101.011	141.6101
170.000000	100.872	140.8784
172.500000	100.731	140.2291
175.000000	100.585	139.6459
177.500000	100.429	139.1084
180.000000	100.265	138.6056
182.500000	100.102	138.1445
185.000000	99.941	137.7632
187.500000	99.781	137.4691
190.000000	99.622	137.1983
192.500000	99.465	136.9594
195.000000	99.316	136.8128
197.500000	99.173	136.7437
200.000000	99.033	136.6959
203.000000	98.868	136.6206
206.000000	98.708	136.5403
209.000000	98.545	136.5113
212.000000	98.377	136.5803
214.000000	98.268	136.6647
218.000000	98.069	136.8436
220.000000	97.979	136.9438
224.000000	97.809	137.1422
227.000000	97.686	137.2809
230.000000	97.567	137.4580
233.000000	97.446	137.6964
236.000000	97.316	137.9304
240.000000	97.148	138.2679
243.000000	97.043	138.5329
247.000000	96.914	138.8649
250.000000	96.820	139.1445
254.000000	96.698	139.5857
258.000000	96.575	140.0116
262.000000	96.454	140.4340
265.000000	96.368	140.7223
269.000000	96.257	141.0705
272.000000	96.179	141.3868
276.000000	96.080	141.7935
280.000000	95.984	142.1336
285.000000	95.877	142.5948
290.000000	95.769	143.0370
295.000000	95.662	143.4977
300.000000	95.558	144.0423
304.000000	95.484	144.5151
307.000000	95.433	144.8612
311.000000	95.372	145.2772
315.000000	95.309	145.6645
320.000000	95.226	146.1324
325.000000	95.153	146.5969
330.000000	95.094	147.0253
335.000000	95.035	147.3474
340.000000	94.957	147.7870
345.000000	94.885	148.3973
350.000000	94.814	148.8911
355.000000	94.747	149.3920
360.000000	94.693	149.9791
365.000000	94.632	150.5116
370.000000	94.576	150.9462
375.000000	94.529	151.3099
382.000000	94.459	151.8847
387.000000	94.410	152.3568
395.000000	94.328	153.0495
400.000000	94.273	153.4771
406.000000	94.210	154.0254
412.000000	94.150	154.6282
418.000000	94.102	155.2073
425.000000	94.058	155.7321
431.000000	94.017	156.1890
437.000000	93.974	156.7499
444.000000	93.925	157.3956
450.000000	93.890	157.8380
455.000000	93.866	158.2184
462.000000	93.828	158.7805
468.000000	93.786	159.2585
475.000000	93.740	159.8854
482.000000	93.706	160.4806
487.000000	93.690	160.8421
494.000000	93.671	161.3710
500.000000	93.652	161.8334
508.000000	93.617	162.4539
515.000000	93.588	162.9875
522.000000	93.564	163.5014
530.000000	93.536	164.1493
538.000000	93.509	164.8031
545.000000	93.491	165.3410
552.000000	93.479	165.8840
560.000000	93.468	166.5276
570.000000	93.453	167.3063
580.000000	93.435	168.0704
590.000000	93.423	168.7897
600.000000	93.409	169.5057
608.000000	93.400	170.1485
615.000000	93.392	170.7236
622.000000	93.389	171.2756
630.000000	93.386	171.8598
640.000000	93.380	172.6057
650.000000	93.379	173.3423
660.000000	93.380	174.0447
670.000000	93.384	174.7917
680.000000	93.396	175.5571
690.000000	93.413	176.3355
700.000000	93.426	177.0978
710.000000	93.433	177.8288
720.000000	93.446	178.5692
730.000000	93.468	179.3280
740.000000	93.487	-179.8901
750.000000	93.510	-179.1059
762.000000	93.547	-178.2492
775.000000	93.593	-177.3551
788.000000	93.641	-176.4452
800.000000	93.688	-175.5658
812.000000	93.738	-174.6872
825.000000	93.802	-173.7996
838.000000	93.871	-172.9162
850.000000	93.944	-172.1228
862.000000	94.021	-171.3172
875.000000	94.108	-170.4341
885.000000	94.177	-169.8068
900.000000	94.284	-168.9157
912.000000	94.374	-168.2187
925.000000	94.476	-167.4640
938.000000	94.582	-166.7462
950.000000	94.689	-166.1339
962.000000	94.803	-165.5289
975.000000	94.926	-164.8815
988.000000	95.050	-164.3113
1000.000000	95.165	-163.8378
1015.000000	95.310	-163.3242
1030.000000	95.460	-162.8605
1044.000000	95.598	-162.4280
1060.000000	95.761	-161.9749
1075.000000	95.915	-161.5995
1090.000000	96.069	-161.2895
1106.000000	96.238	-161.0221
1120.000000	96.388	-160.8378
1138.000000	96.583	-160.6528
1150.000000	96.711	-160.5492
1172.000000	96.934	-160.4070
1180.000000	97.015	-160.3703
1206.000000	97.279	-160.2838
1220.000000	97.422	-160.2810
1241.000000	97.629	-160.3293
1250.000000	97.715	-160.3614
1265.000000	97.858	-160.4121
1280.000000	98.000	-160.4590
1315.000000	98.323	-160.6410
1320.000000	98.369	-160.6820
1340.000000	98.555	-160.8716
1360.000000	98.736	-161.0679
1380.000000	98.914	-161.2710
1400.000000	99.097	-161.4900
1430.000000	99.374	-161.8807
1450.000000	99.558	-162.2055
1475.000000	99.790	-162.6765
1500.000000	100.022	-163.2120
1525.000000	100.249	-163.8036
1550.000000	100.477	-164.4588
1575.000000	100.703	-165.1835
1600.000000	100.931	-165.9842
1625.000000	101.158	-166.8877
1650.000000	101.379	-167.8881
1675.000000	101.589	-168.9649
1700.000000	101.791	-170.1547
1725.000000	101.985	-171.4484
1750.000000	102.168	-172.8339
1775.000000	102.339	-174.3183
1800.000000	102.494	-175.8986
1825.000000	102.631	-177.5736
1850.000000	102.752	-179.3277
1875.000000	102.854	178.8595
1900.000000	102.933	177.0029
1925.000000	102.991	175.1098
1950.000000	103.023	173.1906
1975.000000	103.029	171.2603
2000.000000	103.013	169.3427
2030.000000	102.963	167.0920
2060.000000	102.882	164.9120
2090.000000	102.771	162.8333
2120.000000	102.634	160.8803
2140.000000	102.530	159.6466
2180.000000	102.292	157.3745
2200.000000	102.160	156.3381
2240.000000	101.881	154.4794
2270.000000	101.656	153.2782
2300.000000	101.422	152.2278
2330.000000	101.183	151.3279
2360.000000	100.941	150.5650
2400.000000	100.619	149.7520
2430.000000	100.379	149.2825
2470.000000	100.063	148.8484
2500.000000	99.828	148.6482
2540.000000	99.524	148.5374
2580.000000	99.229	148.5780
2620.000000	98.943	148.7514
2650.000000	98.737	148.9726
2690.000000	98.472	149.3799
2720.000000	98.280	149.7510
2760.000000	98.032	150.2972
2800.000000	97.794	150.9336
2850.000000	97.510	151.8566
2900.000000	97.241	152.8580
2950.000000	96.990	153.9558
3000.000000	96.754	155.1245
3040.000000	96.579	156.1113
3070.000000	96.454	156.8846
3110.000000	96.294	157.9266
3150.000000	96.142	158.9644
3200.000000	95.963	160.3152
3250.000000	95.800	161.7259
3300.000000	95.650	163.1435
3350.000000	95.507	164.6215
3400.000000	95.372	166.1338
3450.000000	95.260	167.6379
3500.000000	95.164	169.1598
3550.000000	95.076	170.7016
3600.000000	94.996	172.2298
3650.000000	94.926	173.7547
3700.000000	94.865	175.3041
3750.000000	94.815	176.8560
3820.000000	94.762	178.9977
3870.000000	94.725	-179.4315
3950.000000	94.674	-176.9324
4000.000000	94.653	-175.4092
4060.000000	94.635	-173.5948
4120.000000	94.628	-171.7801
4180.000000	94.635	-169.9493
4250.000000	94.653	-167.8574
4310.000000	94.674	-166.0686
4370.000000	94.699	-164.3062
4440.000000	94.731	-162.2970
4500.000000	94.765	-160.6007
4550.000000	94.804	-159.1878
4620.000000	94.874	-157.1999
4680.000000	94.943	-155.5447
4750.000000	95.034	-153.6700
4820.000000	95.137	-151.8323
4870.000000	95.216	-150.5492
4940.000000	95.331	-148.8005
5000.000000	95.441	-147.3501
5080.000000	95.610	-145.4706
5150.000000	95.773	-143.8704
5220.000000	95.945	-142.3199
5300.000000	96.154	-140.6183
5380.000000	96.379	-139.0243
5450.000000	96.589	-137.7104
5520.000000	96.810	-136.4700
5600.000000	97.076	-135.1202
5700.000000	97.424	-133.5786
5800.000000	97.791	-132.2179
5900.000000	98.175	-131.0302
6000.000000	98.577	-130.0144
6080.000000	98.909	-129.3276
6150.000000	99.208	-128.8126
6220.000000	99.513	-128.4060
6300.000000	99.863	-128.0598
6400.000000	100.310	-127.7745
6500.000000	100.763	-127.6881
6600.000000	101.219	-127.7962
6700.000000	101.679	-128.0718
6800.000000	102.150	-128.5284
6900.000000	102.646	-129.1682
7000.000000	103.170	-130.0050
7100.000000	103.713	-131.0820
7200.000000	104.269	-132.4518
7300.000000	104.836	-134.1903
7400.000000	105.408	-136.3980
7500.000000	105.974	-139.1653
7620.000000	106.634	-143.3638
7750.000000	107.261	-149.1326
7880.000000	107.650	-156.1115
8000.000000	107.752	-163.2835
8120.000000	107.590	-170.5923
8250.000000	107.131	-177.9245
8380.000000	106.439	175.9774
8500.000000	105.667	171.7027
8620.000000	104.834	168.7329
8750.000000	103.921	166.8264
8850.000000	103.245	166.1216
9000.000000	102.317	166.0169
9120.000000	101.666	166.5092
9250.000000	101.059	167.3955
9380.000000	100.559	168.4670
9500.000000	100.193	169.4817
9620.000000	99.919	170.3692
9750.000000	99.717	171.0205
9880.000000	99.606	171.1833
10000.000000	99.568	170.6907
10150.000000	99.568	168.8902
10300.000000	99.550	165.6484
10440.000000	99.434	161.2746
10600.000000	99.072	155.0294
10750.000000	98.431	148.7599
10900.000000	97.488	143.0498
11060.000000	96.213	138.4495
11200.000000	94.958	136.0447
11380.000000	93.283	135.1629
11500.000000	92.181	135.7918
11720.000000	90.282	139.0161
11800.000000	89.648	140.7259
12060.000000	87.809	147.6765
12200.000000	86.954	152.1088
12410.000000	85.856	159.4186
12500.000000	85.452	162.7221
12650.000000	84.866	168.3859
12800.000000	84.406	174.1543
13150.000000	83.806	-172.6172
13200.000000	83.776	-170.7984
13400.000000	83.789	-163.7415
13600.000000	84.002	-157.2708
13800.000000	84.389	-151.6630
14000.000000	84.942	-147.0227
14300.000000	86.082	-142.0851
14500.000000	87.045	-140.4064
14750.000000	88.455	-140.6874
15000.000000	90.066	-144.1162
15250.000000	91.812	-151.6539
15500.000000	93.511	-164.4824
15750.000000	94.788	176.8873
16000.000000	95.250	154.1460
16250.000000	94.800	131.1868
16500.000000	93.681	111.2207
16750.000000	92.282	94.8488
17000.000000	90.917	80.9706
17250.000000	89.750	68.1095
17500.000000	88.846	54.9901
17750.000000	88.177	40.5058
18000.000000	87.652	23.5632
18250.000000	87.146	2.9546
18500.000000	86.475	-22.6265
18750.000000	85.385	-55.9986
19000.000000	83.670	-114.4355
19250.000000	81.277	115.2683
19500.000000	78.244	-63.5776
19750.000000	74.786	-175.6621
20000.000000	72.126	144.8916
