* Measurement data measured by REW V5.20.13
* Source: USB-C to 3.5mm Headphone Jack Adapter, USB-C to 3.5mm Headphone Jack Adapter, 0, volume: 1.000
* Format: 256k Log Swept Sine, 1 sweep at -12.0 dBFS with no timing reference
* Dated: 2022. 11. 13 ¿ÀÈÄ 1:12:03
* REW Settings:
*  C-weighting compensation: Off
*  Target level: 75.0 dB
* Note: 
* Measurement: Nov 13
* Smoothing: 1/24 octave
* Frequency Step: 1/48 octave
* Start Frequency: 20.300 Hz
*
* Freq(Hz)	SPL(dB)	Phase(degrees)
20.299999	97.478	-108.1585
20.600000	97.530	-108.8770
20.900000	97.623	-110.1558
21.200001	97.682	-111.3458
21.400000	97.706	-112.0629
21.799999	97.738	-113.3680
22.000000	97.752	-113.9826
22.400000	97.782	-115.1781
22.700001	97.803	-116.0768
23.000000	97.818	-116.9774
23.299999	97.826	-117.8336
23.600000	97.832	-118.6072
24.000000	97.854	-119.4960
24.299999	97.890	-120.1092
24.700001	97.967	-120.9834
25.000000	98.034	-121.7547
25.400000	98.111	-122.9365
25.799999	98.158	-124.1496
26.200001	98.179	-125.2022
26.500000	98.192	-125.8345
26.900000	98.225	-126.5241
27.200001	98.265	-127.0242
27.600000	98.330	-127.7846
28.000000	98.385	-128.6707
28.500000	98.419	-129.7830
29.000000	98.434	-130.6832
29.500000	98.464	-131.4041
30.000000	98.520	-132.1878
30.400000	98.564	-132.9522
30.700001	98.586	-133.5746
31.100000	98.599	-134.3740
31.500000	98.605	-135.0740
32.000000	98.622	-135.8369
32.500000	98.658	-136.6220
33.000000	98.697	-137.5202
33.500000	98.724	-138.4631
34.000000	98.741	-139.3377
34.500000	98.758	-140.1271
35.000000	98.779	-140.8870
35.500000	98.799	-141.6394
36.000000	98.815	-142.3448
36.500000	98.833	-142.9834
37.000000	98.860	-143.6064
37.500000	98.888	-144.2766
38.200001	98.911	-145.2715
38.700001	98.913	-145.9357
39.500000	98.919	-146.8746
40.000000	98.929	-147.4576
40.599998	98.939	-148.1956
41.200001	98.942	-148.9322
41.799999	98.942	-149.6201
42.500000	98.946	-150.3604
43.099998	98.957	-150.9666
43.700001	98.974	-151.5692
44.400002	98.998	-152.2970
45.000000	99.015	-152.9490
45.500000	99.024	-153.4938
46.200001	99.029	-154.2245
46.799999	99.027	-154.8089
47.500000	99.023	-155.4377
48.200001	99.019	-155.9976
48.700001	99.021	-156.3639
49.400002	99.032	-156.8742
50.000000	99.046	-157.3383
50.799999	99.064	-157.9941
51.500000	99.078	-158.6042
52.200001	99.083	-159.2368
53.000000	99.075	-159.8944
53.799999	99.065	-160.4205
54.500000	99.066	-160.8444
55.200001	99.071	-161.3225
56.000000	99.063	-161.9410
57.000000	99.021	-162.5754
58.000000	99.005	-162.9531
59.000000	99.025	-163.6108
60.000000	98.999	-164.4831
60.799999	98.965	-164.9961
61.500000	98.954	-165.3820
62.200001	98.957	-165.8181
63.000000	98.960	-166.3801
64.000000	98.955	-167.0938
65.000000	98.941	-167.7075
66.000000	98.932	-168.1962
67.000000	98.937	-168.6628
68.000000	98.941	-169.2357
69.000000	98.921	-169.8304
70.000000	98.887	-170.3209
71.000000	98.856	-170.7034
72.000000	98.838	-171.0424
73.000000	98.832	-171.4261
74.000000	98.828	-171.8726
75.000000	98.817	-172.4103
76.199997	98.781	-173.0325
77.500000	98.739	-173.5586
78.800003	98.718	-174.0457
80.000000	98.709	-174.6207
81.199997	98.682	-175.2091
82.500000	98.643	-175.7008
83.800003	98.619	-176.0087
85.000000	98.611	-176.4128
86.199997	98.570	-176.7962
87.500000	98.547	-177.0089
88.500000	98.544	-177.3493
90.000000	98.506	-177.9000
91.199997	98.483	-178.2387
92.500000	98.468	-178.6682
93.800003	98.443	-179.1184
95.000000	98.412	-179.4661
96.199997	98.381	-179.7394
97.500000	98.349	-179.9912
98.800003	98.326	179.7636
100.000000	98.305	179.4337
101.500000	98.251	178.9606
103.000000	98.190	178.6127
104.400002	98.151	178.3146
106.000000	98.123	177.9605
107.500000	98.115	177.6307
109.000000	98.110	177.2782
110.599998	98.089	176.9417
112.000000	98.053	176.7065
113.800003	97.996	176.4796
115.000000	97.963	176.2900
117.199997	97.901	175.6814
118.000000	97.868	175.4263
120.599998	97.778	175.1108
122.000000	97.786	174.9640
124.099998	97.782	174.5385
125.000000	97.768	174.4008
126.500000	97.742	174.2331
128.000000	97.711	174.0678
131.500000	97.622	173.6837
132.000000	97.612	173.6246
134.000000	97.578	173.3621
136.000000	97.552	173.0660
138.000000	97.514	172.7731
140.000000	97.462	172.6003
143.000000	97.395	172.3716
145.000000	97.348	172.1622
147.500000	97.296	171.9589
150.000000	97.246	171.7252
152.500000	97.180	171.5731
155.000000	97.127	171.4266
157.500000	97.068	171.2523
160.000000	97.010	171.1983
162.500000	96.958	171.1378
165.000000	96.915	170.9886
167.500000	96.882	170.7805
170.000000	96.839	170.5995
172.500000	96.771	170.6393
175.000000	96.742	170.6716
177.500000	96.722	170.3076
180.000000	96.658	170.0045
182.500000	96.587	170.0963
185.000000	96.539	170.2072
187.500000	96.493	170.1794
190.000000	96.455	170.1984
192.500000	96.427	170.2283
195.000000	96.385	170.1868
197.500000	96.328	170.1281
200.000000	96.278	170.1011
203.000000	96.236	170.0474
206.000000	96.183	169.9948
209.000000	96.124	170.1074
212.000000	96.093	170.2608
214.000000	96.080	170.2817
218.000000	96.021	170.2471
220.000000	95.981	170.2843
224.000000	95.924	170.5009
227.000000	95.894	170.6304
230.000000	95.845	170.6465
233.000000	95.782	170.7113
236.000000	95.734	170.9059
240.000000	95.695	171.1066
243.000000	95.658	171.0901
247.000000	95.584	171.1426
250.000000	95.535	171.3087
254.000000	95.486	171.5504
258.000000	95.449	171.7211
262.000000	95.408	171.6834
265.000000	95.359	171.6681
269.000000	95.293	171.9719
272.000000	95.261	172.3127
276.000000	95.237	172.6035
280.000000	95.220	172.7270
285.000000	95.195	172.8629
290.000000	95.140	173.0013
295.000000	95.071	173.3008
300.000000	95.005	173.6414
304.000000	94.960	173.9144
307.000000	94.938	174.1436
311.000000	94.917	174.4655
315.000000	94.897	174.8318
320.000000	94.861	175.3179
325.000000	94.833	175.6869
330.000000	94.817	176.0960
335.000000	94.760	176.5059
340.000000	94.708	176.8596
345.000000	94.675	177.1192
350.000000	94.644	177.4139
355.000000	94.612	177.6165
360.000000	94.588	177.7043
365.000000	94.580	177.9278
370.000000	94.572	178.2570
375.000000	94.576	178.6818
382.000000	94.550	179.5564
387.000000	94.517	-179.9152
395.000000	94.457	-179.4056
400.000000	94.439	-179.2059
406.000000	94.443	-178.7825
412.000000	94.432	-178.1282
418.000000	94.399	-177.6316
425.000000	94.368	-176.9694
431.000000	94.319	-176.2569
437.000000	94.251	-175.9673
444.000000	94.292	-175.8296
450.000000	94.324	-175.2566
455.000000	94.306	-174.8210
462.000000	94.299	-174.2494
468.000000	94.304	-173.6998
475.000000	94.310	-173.0923
482.000000	94.313	-172.4671
487.000000	94.317	-172.1029
494.000000	94.330	-171.6101
500.000000	94.331	-171.1674
508.000000	94.324	-170.5324
515.000000	94.335	-169.9876
522.000000	94.361	-169.4492
530.000000	94.374	-168.7693
538.000000	94.382	-168.1357
545.000000	94.394	-167.5442
552.000000	94.410	-166.9342
560.000000	94.432	-166.2638
570.000000	94.452	-165.4289
580.000000	94.478	-164.6765
590.000000	94.514	-163.9472
600.000000	94.548	-163.1441
608.000000	94.579	-162.4883
615.000000	94.608	-161.9149
622.000000	94.640	-161.3382
630.000000	94.675	-160.6789
640.000000	94.714	-159.8470
650.000000	94.759	-159.0040
660.000000	94.811	-158.2032
670.000000	94.867	-157.4601
680.000000	94.928	-156.7022
690.000000	94.990	-155.9321
700.000000	95.048	-155.1255
710.000000	95.106	-154.3212
720.000000	95.166	-153.5428
730.000000	95.233	-152.7645
740.000000	95.310	-152.0041
750.000000	95.389	-151.2711
762.000000	95.477	-150.3330
775.000000	95.576	-149.2962
788.000000	95.697	-148.3503
800.000000	95.815	-147.4858
812.000000	95.929	-146.6000
825.000000	96.045	-145.6727
838.000000	96.175	-144.7484
850.000000	96.310	-143.9277
862.000000	96.445	-143.1616
875.000000	96.592	-142.3524
885.000000	96.711	-141.7376
900.000000	96.891	-140.8324
912.000000	97.042	-140.1563
925.000000	97.208	-139.4659
938.000000	97.379	-138.8040
950.000000	97.546	-138.2382
962.000000	97.714	-137.7133
975.000000	97.897	-137.1795
988.000000	98.082	-136.6723
1000.000000	98.255	-136.2544
1015.000000	98.474	-135.8156
1030.000000	98.693	-135.4372
1044.000000	98.900	-135.1565
1060.000000	99.135	-134.8843
1075.000000	99.351	-134.6407
1090.000000	99.571	-134.4666
1106.000000	99.814	-134.3716
1120.000000	100.024	-134.3523
1138.000000	100.290	-134.3845
1150.000000	100.469	-134.4335
1172.000000	100.791	-134.5849
1180.000000	100.904	-134.6573
1206.000000	101.261	-134.9456
1220.000000	101.453	-135.1404
1241.000000	101.736	-135.4823
1250.000000	101.855	-135.6434
1265.000000	102.051	-135.9291
1280.000000	102.244	-136.2312
1315.000000	102.688	-137.0461
1320.000000	102.750	-137.1726
1340.000000	102.992	-137.6833
1360.000000	103.224	-138.2145
1380.000000	103.456	-138.7839
1400.000000	103.693	-139.3883
1430.000000	104.041	-140.3603
1450.000000	104.269	-141.0482
1475.000000	104.551	-141.9640
1500.000000	104.830	-142.9444
1525.000000	105.105	-143.9833
1550.000000	105.374	-145.0834
1575.000000	105.638	-146.2614
1600.000000	105.897	-147.5115
1625.000000	106.152	-148.8413
1650.000000	106.396	-150.2688
1675.000000	106.632	-151.7825
1700.000000	106.859	-153.3723
1725.000000	107.073	-155.0560
1750.000000	107.272	-156.8296
1775.000000	107.455	-158.6880
1800.000000	107.621	-160.6245
1825.000000	107.771	-162.6343
1850.000000	107.900	-164.7101
1875.000000	108.008	-166.8380
1900.000000	108.093	-169.0043
1925.000000	108.152	-171.1972
1950.000000	108.186	-173.4067
1975.000000	108.197	-175.6109
2000.000000	108.183	-177.7880
2030.000000	108.135	179.6599
2060.000000	108.054	177.2025
2090.000000	107.942	174.8663
2120.000000	107.803	172.6636
2140.000000	107.696	171.2731
2180.000000	107.456	168.7047
2200.000000	107.323	167.5351
2240.000000	107.038	165.4166
2270.000000	106.811	164.0203
2300.000000	106.578	162.7881
2330.000000	106.340	161.7195
2360.000000	106.098	160.8048
2400.000000	105.775	159.8108
2430.000000	105.534	159.2184
2470.000000	105.220	158.6147
2500.000000	104.988	158.2986
2540.000000	104.687	158.0387
2580.000000	104.396	157.9484
2620.000000	104.116	157.9972
2650.000000	103.914	158.1193
2690.000000	103.655	158.3897
2720.000000	103.467	158.6593
2760.000000	103.228	159.1067
2800.000000	103.001	159.6530
2850.000000	102.730	160.4255
2900.000000	102.478	161.2950
2950.000000	102.246	162.2431
3000.000000	102.031	163.2793
3040.000000	101.870	164.1539
3070.000000	101.757	164.8261
3110.000000	101.615	165.7493
3150.000000	101.482	166.6983
3200.000000	101.326	167.9131
3250.000000	101.185	169.1635
3300.000000	101.056	170.4257
3350.000000	100.938	171.7020
3400.000000	100.834	172.9944
3450.000000	100.745	174.3113
3500.000000	100.671	175.6268
3550.000000	100.612	176.9244
3600.000000	100.562	178.2262
3650.000000	100.520	179.5386
3700.000000	100.484	-179.1567
3750.000000	100.456	-177.8593
3820.000000	100.429	-176.0548
3870.000000	100.414	-174.7850
3950.000000	100.396	-172.7722
4000.000000	100.392	-171.5383
4060.000000	100.394	-170.0802
4120.000000	100.405	-168.6310
4180.000000	100.424	-167.1921
4250.000000	100.458	-165.5506
4310.000000	100.491	-164.1784
4370.000000	100.523	-162.8277
4440.000000	100.562	-161.2801
4500.000000	100.602	-159.9669
4550.000000	100.641	-158.9069
4620.000000	100.702	-157.4682
4680.000000	100.766	-156.2564
4750.000000	100.849	-154.8767
4820.000000	100.940	-153.5319
4870.000000	101.008	-152.6030
4940.000000	101.108	-151.3362
5000.000000	101.203	-150.2850
5080.000000	101.339	-148.9268
5150.000000	101.468	-147.7802
5220.000000	101.607	-146.6822
5300.000000	101.778	-145.4946
5380.000000	101.961	-144.3736
5450.000000	102.130	-143.4563
5520.000000	102.306	-142.6028
5600.000000	102.517	-141.7033
5700.000000	102.796	-140.6758
5800.000000	103.092	-139.7791
5900.000000	103.402	-139.0310
6000.000000	103.722	-138.4270
6080.000000	103.988	-138.0462
6150.000000	104.228	-137.7881
6220.000000	104.473	-137.6165
6300.000000	104.756	-137.5257
6400.000000	105.114	-137.5448
6500.000000	105.478	-137.7128
6600.000000	105.844	-138.0366
6700.000000	106.216	-138.5147
6800.000000	106.599	-139.1356
6900.000000	107.007	-139.9100
7000.000000	107.442	-140.8588
7100.000000	107.896	-142.0193
7200.000000	108.365	-143.4513
7300.000000	108.846	-145.2410
7400.000000	109.331	-147.4815
7500.000000	109.812	-150.2685
7620.000000	110.369	-154.4723
7750.000000	110.884	-160.2112
7880.000000	111.163	-167.1235
8000.000000	111.162	-174.1984
8120.000000	110.902	178.6369
8250.000000	110.341	171.5139
8380.000000	109.550	165.6667
8500.000000	108.690	161.6478
8620.000000	107.773	158.9532
8750.000000	106.773	157.3606
8850.000000	106.031	156.8965
9000.000000	105.007	157.1335
9120.000000	104.279	157.9107
9250.000000	103.595	159.1094
9380.000000	103.020	160.4993
9500.000000	102.586	161.8192
9620.000000	102.243	163.0159
9750.000000	101.970	163.9974
9880.000000	101.787	164.4455
10000.000000	101.685	164.2028
10150.000000	101.614	162.7912
10300.000000	101.522	159.9435
10440.000000	101.333	155.9499
10600.000000	100.886	150.1565
10750.000000	100.170	144.3406
10900.000000	99.156	139.1513
11060.000000	97.809	135.1626
11200.000000	96.492	133.2979
11380.000000	94.740	133.0687
11500.000000	93.595	134.0945
11720.000000	91.625	138.0122
11800.000000	90.964	139.9728
12060.000000	89.044	147.8409
12200.000000	88.154	152.7887
12410.000000	86.990	160.7924
12500.000000	86.556	164.4075
12650.000000	85.929	170.5868
12800.000000	85.433	176.8486
13150.000000	84.745	-168.6790
13200.000000	84.701	-166.6734
13400.000000	84.665	-159.0156
13600.000000	84.835	-152.0584
13800.000000	85.190	-145.8665
14000.000000	85.717	-140.6027
14300.000000	86.811	-134.6108
14500.000000	87.733	-132.2637
14750.000000	89.099	-131.7143
15000.000000	90.675	-134.4132
15250.000000	92.386	-141.3091
15500.000000	94.035	-153.5502
15750.000000	95.249	-171.5258
16000.000000	95.645	166.5497
16250.000000	95.140	144.5633
16500.000000	93.981	125.6249
16750.000000	92.562	110.2048
17000.000000	91.182	97.1416
17250.000000	90.003	85.0700
17500.000000	89.093	72.7245
17750.000000	88.416	58.9532
18000.000000	87.878	42.6070
18250.000000	87.346	22.5063
18500.000000	86.622	-2.5226
18750.000000	85.466	-35.4850
19000.000000	83.693	-94.7462
19250.000000	81.244	132.5386
19500.000000	78.149	-44.8373
19750.000000	74.628	-153.1949
20000.000000	71.924	168.7377
