* Measurement data measured by REW V5.20.13
* Source: USB-C to 3.5mm Headphone Jack Adapter, USB-C to 3.5mm Headphone Jack Adapter, 0, volume: 1.000
* Format: 256k Log Swept Sine, 1 sweep at -12.0 dBFS with no timing reference
* Dated: 2022. 11. 13 ¿ÀÈÄ 12:58:48
* REW Settings:
*  C-weighting compensation: Off
*  Target level: 75.0 dB
* Note: 
* Measurement: Nov 13
* Smoothing: 1/24 octave
* Frequency Step: 1/48 octave
* Start Frequency: 20.300 Hz
*
* Freq(Hz)	SPL(dB)	Phase(degrees)
20.299999	95.256	-95.9638
20.600000	95.393	-95.7224
20.900000	95.683	-95.6186
21.200001	95.980	-96.4170
21.400000	96.150	-97.4491
21.799999	96.378	-100.2928
22.000000	96.424	-101.8468
22.400000	96.394	-104.6800
22.700001	96.312	-106.2811
23.000000	96.239	-107.3693
23.299999	96.216	-108.1481
23.600000	96.252	-108.8679
24.000000	96.365	-110.0660
24.299999	96.460	-111.2206
24.700001	96.558	-112.9388
25.000000	96.606	-114.1669
25.400000	96.654	-115.5493
25.799999	96.715	-116.6549
26.200001	96.801	-117.6466
26.500000	96.872	-118.3988
26.900000	96.959	-119.4255
27.200001	97.011	-120.1699
27.600000	97.067	-121.0655
28.000000	97.120	-121.8408
28.500000	97.191	-122.7392
29.000000	97.261	-123.6891
29.500000	97.311	-124.7008
30.000000	97.340	-125.6791
30.400000	97.358	-126.3952
30.700001	97.374	-126.9080
31.100000	97.402	-127.6171
31.500000	97.428	-128.4007
32.000000	97.441	-129.4471
32.500000	97.424	-130.3530
33.000000	97.412	-130.9034
33.500000	97.459	-131.1923
34.000000	97.577	-131.6152
34.500000	97.714	-132.4671
35.000000	97.811	-133.6391
35.500000	97.854	-134.7744
36.000000	97.877	-135.6870
36.500000	97.906	-136.4891
37.000000	97.932	-137.3450
37.500000	97.931	-138.2153
38.200001	97.896	-139.1636
38.700001	97.883	-139.6413
39.500000	97.903	-140.4732
40.000000	97.918	-141.0982
40.599998	97.933	-141.8444
41.200001	97.960	-142.5701
41.799999	97.999	-143.3517
42.500000	98.042	-144.3161
43.099998	98.076	-145.0967
43.700001	98.110	-145.8211
44.400002	98.143	-146.6029
45.000000	98.164	-147.1729
45.500000	98.183	-147.5724
46.200001	98.220	-148.1318
46.799999	98.248	-148.7199
47.500000	98.255	-149.4890
48.200001	98.242	-150.2095
48.700001	98.232	-150.6963
49.400002	98.223	-151.4272
50.000000	98.211	-152.0971
50.799999	98.191	-152.9152
51.500000	98.190	-153.5118
52.200001	98.217	-154.0636
53.000000	98.274	-154.7438
53.799999	98.328	-155.5367
54.500000	98.345	-156.2012
55.200001	98.343	-156.6667
56.000000	98.345	-157.0495
57.000000	98.318	-157.6018
58.000000	98.237	-157.8038
59.000000	98.236	-157.7244
60.000000	98.307	-158.5078
60.799999	98.301	-159.6884
61.500000	98.251	-160.5936
62.200001	98.214	-161.2556
63.000000	98.211	-161.9755
64.000000	98.219	-162.9442
65.000000	98.223	-163.7107
66.000000	98.236	-164.2734
67.000000	98.246	-164.7063
68.000000	98.250	-165.0685
69.000000	98.243	-165.4327
70.000000	98.226	-165.8536
71.000000	98.198	-166.3144
72.000000	98.177	-166.7903
73.000000	98.169	-167.3710
74.000000	98.160	-168.0546
75.000000	98.142	-168.6970
76.199997	98.128	-169.3285
77.500000	98.123	-169.9918
78.800003	98.101	-170.6364
80.000000	98.066	-171.1117
81.199997	98.033	-171.5007
82.500000	98.002	-171.8822
83.800003	97.987	-172.3224
85.000000	97.968	-172.8200
86.199997	97.945	-173.2825
87.500000	97.927	-173.7601
88.500000	97.911	-174.1154
90.000000	97.894	-174.5573
91.199997	97.887	-174.9451
92.500000	97.872	-175.3818
93.800003	97.853	-175.8502
95.000000	97.823	-176.2883
96.199997	97.785	-176.6513
97.500000	97.751	-176.9786
98.800003	97.723	-177.3290
100.000000	97.694	-177.6514
101.500000	97.660	-178.0246
103.000000	97.634	-178.4336
104.400002	97.603	-178.8520
106.000000	97.562	-179.2581
107.500000	97.524	-179.5792
109.000000	97.490	-179.8630
110.599998	97.463	179.8256
112.000000	97.447	179.4688
113.800003	97.411	178.9767
115.000000	97.378	178.7592
117.199997	97.330	178.5759
118.000000	97.316	178.5038
120.599998	97.268	178.1039
122.000000	97.234	177.7668
124.099998	97.186	177.2800
125.000000	97.172	177.0739
126.500000	97.148	176.7494
128.000000	97.120	176.4986
131.500000	97.061	176.1000
132.000000	97.052	176.0381
134.000000	97.009	175.7806
136.000000	96.964	175.5233
138.000000	96.918	175.2313
140.000000	96.871	174.9542
143.000000	96.802	174.5866
145.000000	96.761	174.4144
147.500000	96.720	174.1856
150.000000	96.657	173.9206
152.500000	96.589	173.7520
155.000000	96.552	173.5201
157.500000	96.523	173.2594
160.000000	96.477	173.1613
162.500000	96.420	173.1435
165.000000	96.357	173.0158
167.500000	96.298	172.8900
170.000000	96.257	172.8120
172.500000	96.211	172.6819
175.000000	96.155	172.5390
177.500000	96.105	172.3334
180.000000	96.057	172.1678
182.500000	96.019	172.1088
185.000000	95.982	172.0828
187.500000	95.940	172.0936
190.000000	95.902	172.1375
192.500000	95.868	172.1331
195.000000	95.819	172.0734
197.500000	95.760	172.0419
200.000000	95.715	172.0233
203.000000	95.668	172.0138
206.000000	95.616	172.1016
209.000000	95.575	172.1187
212.000000	95.537	171.9657
214.000000	95.503	171.9215
218.000000	95.436	172.1772
220.000000	95.414	172.3019
224.000000	95.370	172.2140
227.000000	95.313	172.1767
230.000000	95.264	172.3569
233.000000	95.237	172.5430
236.000000	95.219	172.5724
240.000000	95.162	172.5061
243.000000	95.099	172.6414
247.000000	95.044	172.9978
250.000000	95.022	173.1111
254.000000	94.969	173.1401
258.000000	94.896	173.3507
262.000000	94.846	173.6326
265.000000	94.833	173.7658
269.000000	94.808	173.8456
272.000000	94.767	173.9072
276.000000	94.699	174.1312
280.000000	94.637	174.5097
285.000000	94.601	174.9304
290.000000	94.603	175.2589
295.000000	94.618	175.3102
300.000000	94.567	175.4507
304.000000	94.501	175.5954
307.000000	94.465	175.7062
311.000000	94.423	175.9567
315.000000	94.374	176.3344
320.000000	94.317	176.8310
325.000000	94.277	177.2098
330.000000	94.253	177.5826
335.000000	94.232	177.9713
340.000000	94.217	178.3336
345.000000	94.196	178.6602
350.000000	94.168	178.9891
355.000000	94.130	179.2911
360.000000	94.086	179.5168
365.000000	94.058	179.7844
370.000000	94.051	-179.8899
375.000000	94.061	-179.5556
382.000000	94.082	-178.9142
387.000000	94.078	-178.3191
395.000000	94.013	-177.4740
400.000000	93.955	-177.2136
406.000000	93.924	-176.9961
412.000000	93.938	-176.5708
418.000000	93.935	-176.0294
425.000000	93.901	-175.4761
431.000000	93.888	-175.0960
437.000000	93.898	-174.5781
444.000000	93.885	-173.8614
450.000000	93.865	-173.4081
455.000000	93.866	-173.0222
462.000000	93.863	-172.3986
468.000000	93.860	-171.9576
475.000000	93.881	-171.4247
482.000000	93.888	-170.8698
487.000000	93.886	-170.4768
494.000000	93.884	-169.8731
500.000000	93.887	-169.3959
508.000000	93.900	-168.8154
515.000000	93.914	-168.3239
522.000000	93.925	-167.7523
530.000000	93.934	-167.0951
538.000000	93.957	-166.4616
545.000000	93.980	-165.9058
552.000000	93.999	-165.3050
560.000000	94.019	-164.5957
570.000000	94.043	-163.7581
580.000000	94.074	-162.9712
590.000000	94.109	-162.2268
600.000000	94.151	-161.4330
608.000000	94.185	-160.7864
615.000000	94.213	-160.2468
622.000000	94.244	-159.7011
630.000000	94.285	-159.0488
640.000000	94.333	-158.2773
650.000000	94.382	-157.4983
660.000000	94.434	-156.6961
670.000000	94.491	-155.9434
680.000000	94.548	-155.1655
690.000000	94.603	-154.3264
700.000000	94.666	-153.5560
710.000000	94.731	-152.8394
720.000000	94.795	-152.0555
730.000000	94.866	-151.2449
740.000000	94.942	-150.4778
750.000000	95.021	-149.7776
762.000000	95.111	-148.8856
775.000000	95.214	-147.8515
788.000000	95.329	-146.8643
800.000000	95.444	-145.9937
812.000000	95.553	-145.1702
825.000000	95.676	-144.2540
838.000000	95.813	-143.3235
850.000000	95.941	-142.5089
862.000000	96.071	-141.7297
875.000000	96.219	-140.9206
885.000000	96.335	-140.3228
900.000000	96.525	-139.4444
912.000000	96.680	-138.7848
925.000000	96.844	-138.0873
938.000000	97.018	-137.3870
950.000000	97.183	-136.8130
962.000000	97.346	-136.3094
975.000000	97.524	-135.8186
988.000000	97.706	-135.3461
1000.000000	97.877	-134.9075
1015.000000	98.098	-134.4286
1030.000000	98.325	-134.0334
1044.000000	98.532	-133.7326
1060.000000	98.761	-133.4482
1075.000000	98.977	-133.2607
1090.000000	99.198	-133.1303
1106.000000	99.442	-133.0218
1120.000000	99.650	-132.9627
1138.000000	99.912	-132.9471
1150.000000	100.088	-132.9824
1172.000000	100.411	-133.0987
1180.000000	100.524	-133.1518
1206.000000	100.881	-133.3936
1220.000000	101.070	-133.5770
1241.000000	101.351	-133.9029
1250.000000	101.469	-134.0472
1265.000000	101.663	-134.3087
1280.000000	101.852	-134.5915
1315.000000	102.291	-135.3148
1320.000000	102.352	-135.4288
1340.000000	102.592	-135.8986
1360.000000	102.824	-136.3872
1380.000000	103.055	-136.9096
1400.000000	103.287	-137.4588
1430.000000	103.635	-138.3271
1450.000000	103.866	-138.9515
1475.000000	104.150	-139.7683
1500.000000	104.429	-140.6340
1525.000000	104.704	-141.5465
1550.000000	104.975	-142.5440
1575.000000	105.241	-143.6004
1600.000000	105.505	-144.7272
1625.000000	105.765	-145.9252
1650.000000	106.020	-147.2031
1675.000000	106.268	-148.5632
1700.000000	106.507	-150.0011
1725.000000	106.738	-151.5202
1750.000000	106.957	-153.1345
1775.000000	107.164	-154.8460
1800.000000	107.358	-156.6415
1825.000000	107.536	-158.5220
1850.000000	107.696	-160.4868
1875.000000	107.838	-162.5220
1900.000000	107.961	-164.6138
1925.000000	108.060	-166.7607
1950.000000	108.136	-168.9470
1975.000000	108.187	-171.1494
2000.000000	108.214	-173.3551
2030.000000	108.215	-175.9888
2060.000000	108.181	-178.5698
2090.000000	108.113	178.9378
2120.000000	108.013	176.5490
2140.000000	107.931	175.0211
2180.000000	107.733	172.1489
2200.000000	107.618	170.8169
2240.000000	107.361	168.3612
2270.000000	107.151	166.7209
2300.000000	106.929	165.2577
2330.000000	106.699	163.9524
2360.000000	106.463	162.8065
2400.000000	106.143	161.5140
2430.000000	105.903	160.7150
2470.000000	105.585	159.8648
2500.000000	105.350	159.3731
2540.000000	105.039	158.8942
2580.000000	104.738	158.5973
2620.000000	104.448	158.4559
2650.000000	104.238	158.4586
2690.000000	103.966	158.5744
2720.000000	103.768	158.7352
2760.000000	103.517	159.0494
2800.000000	103.277	159.4624
2850.000000	102.994	160.0922
2900.000000	102.728	160.8152
2950.000000	102.481	161.6625
3000.000000	102.248	162.6079
3040.000000	102.072	163.3972
3070.000000	101.949	164.0145
3110.000000	101.796	164.8727
3150.000000	101.653	165.7613
3200.000000	101.483	166.9121
3250.000000	101.326	168.0912
3300.000000	101.183	169.2888
3350.000000	101.053	170.5042
3400.000000	100.937	171.7399
3450.000000	100.836	172.9913
3500.000000	100.751	174.2649
3550.000000	100.679	175.5437
3600.000000	100.615	176.8124
3650.000000	100.559	178.0766
3700.000000	100.511	179.3380
3750.000000	100.472	-179.3905
3820.000000	100.431	-177.6180
3870.000000	100.404	-176.3645
3950.000000	100.367	-174.3909
4000.000000	100.353	-173.1750
4060.000000	100.346	-171.7226
4120.000000	100.347	-170.2774
4180.000000	100.354	-168.8625
4250.000000	100.373	-167.2495
4310.000000	100.394	-165.8726
4370.000000	100.412	-164.5196
4440.000000	100.436	-162.9858
4500.000000	100.462	-161.6953
4550.000000	100.491	-160.6333
4620.000000	100.542	-159.1703
4680.000000	100.594	-157.9464
4750.000000	100.663	-156.5403
4820.000000	100.740	-155.1691
4870.000000	100.799	-154.2210
4940.000000	100.889	-152.9237
5000.000000	100.973	-151.8369
5080.000000	101.097	-150.4378
5150.000000	101.218	-149.2665
5220.000000	101.347	-148.1391
5300.000000	101.506	-146.9085
5380.000000	101.677	-145.7362
5450.000000	101.838	-144.7614
5520.000000	102.009	-143.8376
5600.000000	102.216	-142.8538
5700.000000	102.487	-141.7364
5800.000000	102.775	-140.7284
5900.000000	103.082	-139.8563
6000.000000	103.402	-139.1301
6080.000000	103.669	-138.6449
6150.000000	103.911	-138.2871
6220.000000	104.162	-138.0009
6300.000000	104.457	-137.7732
6400.000000	104.839	-137.6337
6500.000000	105.234	-137.6849
6600.000000	105.637	-137.9488
6700.000000	106.045	-138.4256
6800.000000	106.461	-139.1048
6900.000000	106.900	-139.9735
7000.000000	107.363	-141.0521
7100.000000	107.840	-142.3638
7200.000000	108.329	-143.9576
7300.000000	108.828	-145.9194
7400.000000	109.332	-148.3456
7500.000000	109.831	-151.3369
7620.000000	110.412	-155.8331
7750.000000	110.951	-161.9996
7880.000000	111.244	-169.4942
8000.000000	111.235	-177.2397
8120.000000	110.933	174.8592
8250.000000	110.285	166.9991
8380.000000	109.369	160.6122
8500.000000	108.374	156.3327
8620.000000	107.315	153.5821
8750.000000	106.165	152.0918
8850.000000	105.312	151.8000
9000.000000	104.125	152.4110
9120.000000	103.273	153.5703
9250.000000	102.452	155.2704
9380.000000	101.734	157.2628
9500.000000	101.164	159.2545
9620.000000	100.687	161.2976
9750.000000	100.268	163.4688
9880.000000	99.949	165.4644
10000.000000	99.740	166.9677
10150.000000	99.585	168.2303
10300.000000	99.529	168.6405
10440.000000	99.534	167.9790
10600.000000	99.542	165.7218
10750.000000	99.464	162.0553
10900.000000	99.198	157.1050
11060.000000	98.616	151.1290
11200.000000	97.829	146.1430
11380.000000	96.493	141.2361
11500.000000	95.461	139.3126
11720.000000	93.461	138.6618
11800.000000	92.739	139.2470
12060.000000	90.535	143.5541
12200.000000	89.469	147.0856
12410.000000	88.040	153.5200
12500.000000	87.492	156.5901
12650.000000	86.678	161.9934
12800.000000	85.986	167.6718
13150.000000	84.836	-178.4167
13200.000000	84.728	-176.4322
13400.000000	84.441	-168.6580
13600.000000	84.368	-161.2150
13800.000000	84.493	-154.4264
14000.000000	84.793	-148.4343
14300.000000	85.542	-140.9612
14500.000000	86.241	-137.2006
14750.000000	87.350	-134.1955
15000.000000	88.737	-133.5966
15250.000000	90.450	-136.1716
15500.000000	92.472	-143.3040
15750.000000	94.496	-157.2118
16000.000000	95.882	-179.4855
16250.000000	96.032	152.8105
16500.000000	94.872	126.9643
16750.000000	92.906	107.2886
17000.000000	90.761	92.8886
17250.000000	88.823	81.3847
17500.000000	87.220	70.8811
17750.000000	85.925	60.1733
18000.000000	84.880	48.4062
18250.000000	84.039	34.7326
18500.000000	83.374	18.0916
18750.000000	82.834	-4.4016
19000.000000	82.268	-46.1530
19250.000000	81.402	-150.8521
19500.000000	79.949	29.0580
19750.000000	77.820	-111.1408
20000.000000	75.940	-164.4043
