* Measurement data measured by REW V5.20.13
* Source: USB-C to 3.5mm Headphone Jack Adapter, USB-C to 3.5mm Headphone Jack Adapter, 0, volume: 1.000
* Format: 256k Log Swept Sine, 1 sweep at -12.0 dBFS with no timing reference
* Dated: 2022. 11. 13 ¿ÀÈÄ 12:53:10
* REW Settings:
*  C-weighting compensation: Off
*  Target level: 75.0 dB
* Note: 
* Measurement: Nov 13
* Smoothing: 1/24 octave
* Frequency Step: 1/48 octave
* Start Frequency: 20.300 Hz
*
* Freq(Hz)	SPL(dB)	Phase(degrees)
20.299999	100.519	-104.2470
20.600000	100.620	-104.3822
20.900000	100.837	-104.8008
21.200001	101.065	-105.7046
21.400000	101.196	-106.6165
21.799999	101.367	-108.9675
22.000000	101.390	-110.2227
22.400000	101.309	-112.3809
22.700001	101.180	-113.3405
23.000000	101.058	-113.6031
23.299999	101.007	-113.3899
23.600000	101.049	-113.0642
24.000000	101.229	-113.0434
24.299999	101.397	-113.5960
24.700001	101.582	-114.9928
25.000000	101.666	-116.2487
25.400000	101.714	-117.8145
25.799999	101.739	-119.0636
26.200001	101.780	-120.0985
26.500000	101.825	-120.8596
26.900000	101.888	-121.9280
27.200001	101.930	-122.7372
27.600000	101.978	-123.7427
28.000000	102.038	-124.6460
28.500000	102.143	-125.8078
29.000000	102.251	-127.2322
29.500000	102.317	-128.8533
30.000000	102.328	-130.3519
30.400000	102.318	-131.3152
30.700001	102.313	-131.9081
31.100000	102.317	-132.6013
31.500000	102.332	-133.2514
32.000000	102.360	-134.0443
32.500000	102.393	-134.8103
33.000000	102.436	-135.5681
33.500000	102.489	-136.3551
34.000000	102.543	-137.1794
34.500000	102.596	-138.0288
35.000000	102.645	-138.9065
35.500000	102.688	-139.8103
36.000000	102.721	-140.6962
36.500000	102.750	-141.5158
37.000000	102.784	-142.2859
37.500000	102.823	-143.0773
38.200001	102.867	-144.2628
38.700001	102.882	-145.0807
39.500000	102.906	-146.2186
40.000000	102.931	-146.9046
40.599998	102.965	-147.7921
41.200001	102.988	-148.7152
41.799999	103.001	-149.6026
42.500000	103.014	-150.5829
43.099998	103.025	-151.3988
43.700001	103.033	-152.1826
44.400002	103.041	-153.0422
45.000000	103.050	-153.7370
45.500000	103.061	-154.2915
46.200001	103.087	-155.0625
46.799999	103.117	-155.7808
47.500000	103.148	-156.7190
48.200001	103.162	-157.6662
48.700001	103.168	-158.2860
49.400002	103.182	-159.0946
50.000000	103.195	-159.7933
50.799999	103.202	-160.7018
51.500000	103.201	-161.3836
52.200001	103.209	-162.0004
53.000000	103.220	-162.7511
53.799999	103.214	-163.5222
54.500000	103.199	-164.1435
55.200001	103.185	-164.7423
56.000000	103.171	-165.4629
57.000000	103.148	-166.3951
58.000000	103.132	-167.2849
59.000000	103.139	-168.2129
60.000000	103.154	-169.2512
60.799999	103.162	-170.1096
61.500000	103.166	-170.8476
62.200001	103.163	-171.5409
63.000000	103.158	-172.2619
64.000000	103.146	-173.0932
65.000000	103.127	-173.8377
66.000000	103.111	-174.5308
67.000000	103.095	-175.2511
68.000000	103.075	-175.9702
69.000000	103.056	-176.6892
70.000000	103.036	-177.4480
71.000000	103.006	-178.1961
72.000000	102.973	-178.8563
73.000000	102.947	-179.5048
74.000000	102.917	179.8413
75.000000	102.888	179.2005
76.199997	102.855	178.4363
77.500000	102.826	177.5989
78.800003	102.789	176.7674
80.000000	102.759	176.0780
81.199997	102.722	175.4016
82.500000	102.680	174.7486
83.800003	102.638	174.0711
85.000000	102.598	173.4452
86.199997	102.561	172.7787
87.500000	102.520	172.1276
88.500000	102.499	171.6595
90.000000	102.465	170.9986
91.199997	102.439	170.5194
92.500000	102.399	169.9429
93.800003	102.342	169.4004
95.000000	102.293	168.8859
96.199997	102.246	168.3449
97.500000	102.210	167.7890
98.800003	102.191	167.1985
100.000000	102.163	166.6547
101.500000	102.112	166.1838
103.000000	102.061	165.8082
104.400002	102.004	165.4736
106.000000	101.968	165.0334
107.500000	101.952	164.2124
109.000000	101.886	163.2912
110.599998	101.806	162.8436
112.000000	101.788	162.6341
113.800003	101.765	162.1927
115.000000	101.727	161.9210
117.199997	101.645	161.5287
118.000000	101.618	161.4080
120.599998	101.594	160.8476
122.000000	101.587	160.2406
124.099998	101.556	159.3722
125.000000	101.544	159.0263
126.500000	101.523	158.4690
128.000000	101.500	157.9419
131.500000	101.449	156.8347
132.000000	101.442	156.6842
134.000000	101.406	156.1035
136.000000	101.361	155.5427
138.000000	101.316	154.9101
140.000000	101.274	154.1627
143.000000	101.215	153.0016
145.000000	101.172	152.2759
147.500000	101.113	151.3748
150.000000	101.040	150.4094
152.500000	100.956	149.5192
155.000000	100.864	148.6384
157.500000	100.763	147.6531
160.000000	100.660	146.5992
162.500000	100.548	145.6762
165.000000	100.422	144.9217
167.500000	100.286	144.1678
170.000000	100.136	143.3568
172.500000	99.981	142.6110
175.000000	99.829	141.9533
177.500000	99.679	141.3580
180.000000	99.527	140.9113
182.500000	99.376	140.5476
185.000000	99.212	140.1523
187.500000	99.044	139.7355
190.000000	98.889	139.3660
192.500000	98.750	139.1006
195.000000	98.609	138.9496
197.500000	98.459	138.8746
200.000000	98.300	138.8254
203.000000	98.124	138.7400
206.000000	97.963	138.5180
209.000000	97.818	138.5270
212.000000	97.741	138.6102
214.000000	97.687	138.3870
218.000000	97.425	137.9626
220.000000	97.259	138.2178
224.000000	97.032	139.1213
227.000000	96.926	139.5225
230.000000	96.821	139.8192
233.000000	96.707	140.0159
236.000000	96.576	139.9975
240.000000	96.407	140.0427
243.000000	96.310	140.4447
247.000000	96.195	141.0925
250.000000	96.102	141.3667
254.000000	95.980	141.5718
258.000000	95.859	141.9442
262.000000	95.740	142.5438
265.000000	95.655	142.9344
269.000000	95.554	143.2366
272.000000	95.482	143.3900
276.000000	95.373	143.7221
280.000000	95.262	144.2307
285.000000	95.163	144.8909
290.000000	95.088	145.3010
295.000000	94.993	145.8262
300.000000	94.912	146.2068
304.000000	94.843	146.2662
307.000000	94.768	146.4781
311.000000	94.664	147.1473
315.000000	94.608	147.7799
320.000000	94.615	147.8988
325.000000	94.612	148.1498
330.000000	94.488	149.2281
335.000000	94.321	149.9598
340.000000	94.227	150.4146
345.000000	94.177	150.8965
350.000000	94.111	151.2092
355.000000	94.041	151.5864
360.000000	93.975	152.0995
365.000000	93.924	152.4835
370.000000	93.910	152.8215
375.000000	93.911	153.0217
382.000000	93.833	153.1708
387.000000	93.732	153.9366
395.000000	93.633	155.4457
400.000000	93.619	155.7293
406.000000	93.640	155.7357
412.000000	93.697	156.0958
418.000000	93.701	157.1940
425.000000	93.503	158.0653
431.000000	93.307	157.9317
437.000000	93.278	158.3502
444.000000	93.237	159.4133
450.000000	93.210	159.9095
455.000000	93.210	160.3127
462.000000	93.189	160.8925
468.000000	93.182	161.3127
475.000000	93.186	161.9661
482.000000	93.141	162.6379
487.000000	93.092	163.0114
494.000000	93.034	163.4296
500.000000	93.029	163.8394
508.000000	93.041	164.6492
515.000000	93.021	165.2599
522.000000	92.971	165.7245
530.000000	92.939	166.2810
538.000000	92.925	166.9268
545.000000	92.922	167.4750
552.000000	92.912	167.9878
560.000000	92.899	168.4884
570.000000	92.881	169.2370
580.000000	92.862	170.0336
590.000000	92.850	170.8355
600.000000	92.842	171.5832
608.000000	92.832	172.1520
615.000000	92.826	172.6827
622.000000	92.821	173.2176
630.000000	92.821	173.8097
640.000000	92.825	174.5145
650.000000	92.830	175.2293
660.000000	92.838	175.9487
670.000000	92.846	176.6660
680.000000	92.855	177.4218
690.000000	92.862	178.2077
700.000000	92.868	178.9560
710.000000	92.883	179.7126
720.000000	92.909	-179.5101
730.000000	92.935	-178.7768
740.000000	92.957	-178.0542
750.000000	92.986	-177.3466
762.000000	93.030	-176.4990
775.000000	93.071	-175.5605
788.000000	93.121	-174.6372
800.000000	93.167	-173.7992
812.000000	93.221	-172.9942
825.000000	93.287	-172.1071
838.000000	93.356	-171.1763
850.000000	93.420	-170.3497
862.000000	93.488	-169.5477
875.000000	93.571	-168.6889
885.000000	93.638	-168.0530
900.000000	93.745	-167.1356
912.000000	93.841	-166.4518
925.000000	93.949	-165.7259
938.000000	94.054	-165.0004
950.000000	94.154	-164.3968
962.000000	94.263	-163.8257
975.000000	94.388	-163.1983
988.000000	94.513	-162.5886
1000.000000	94.630	-162.1064
1015.000000	94.774	-161.5799
1030.000000	94.927	-161.0733
1044.000000	95.072	-160.6509
1060.000000	95.228	-160.2223
1075.000000	95.376	-159.8700
1090.000000	95.530	-159.5608
1106.000000	95.700	-159.2621
1120.000000	95.850	-159.0553
1138.000000	96.043	-158.8373
1150.000000	96.168	-158.7047
1172.000000	96.390	-158.5361
1180.000000	96.472	-158.5010
1206.000000	96.735	-158.4267
1220.000000	96.876	-158.4138
1241.000000	97.073	-158.3888
1250.000000	97.156	-158.3892
1265.000000	97.298	-158.4153
1280.000000	97.442	-158.4589
1315.000000	97.769	-158.6245
1320.000000	97.814	-158.6523
1340.000000	97.995	-158.7752
1360.000000	98.172	-158.9111
1380.000000	98.348	-159.0492
1400.000000	98.529	-159.2319
1430.000000	98.803	-159.5702
1450.000000	98.985	-159.8155
1475.000000	99.212	-160.1755
1500.000000	99.444	-160.6003
1525.000000	99.678	-161.0770
1550.000000	99.910	-161.6154
1575.000000	100.139	-162.2290
1600.000000	100.370	-162.9099
1625.000000	100.601	-163.6750
1650.000000	100.828	-164.5312
1675.000000	101.052	-165.4601
1700.000000	101.269	-166.4912
1725.000000	101.480	-167.6344
1750.000000	101.683	-168.8814
1775.000000	101.877	-170.2183
1800.000000	102.058	-171.6509
1825.000000	102.225	-173.1899
1850.000000	102.376	-174.8147
1875.000000	102.510	-176.5101
1900.000000	102.626	-178.2942
1925.000000	102.722	179.8515
1950.000000	102.796	177.9598
1975.000000	102.845	176.0376
2000.000000	102.870	174.0840
2030.000000	102.870	171.7439
2060.000000	102.835	169.4480
2090.000000	102.768	167.2243
2120.000000	102.669	165.0948
2140.000000	102.587	163.7318
2180.000000	102.389	161.1432
2200.000000	102.275	159.9356
2240.000000	102.023	157.7493
2270.000000	101.814	156.3145
2300.000000	101.594	155.0395
2330.000000	101.365	153.9066
2360.000000	101.131	152.9158
2400.000000	100.812	151.8204
2430.000000	100.572	151.1630
2470.000000	100.253	150.4776
2500.000000	100.018	150.1103
2540.000000	99.706	149.7804
2580.000000	99.400	149.6245
2620.000000	99.103	149.6343
2650.000000	98.887	149.7324
2690.000000	98.608	149.9732
2720.000000	98.407	150.2317
2760.000000	98.149	150.6700
2800.000000	97.900	151.1921
2850.000000	97.601	151.9674
2900.000000	97.318	152.8402
2950.000000	97.052	153.8457
3000.000000	96.797	154.9119
3040.000000	96.605	155.7841
3070.000000	96.470	156.4752
3110.000000	96.299	157.4492
3150.000000	96.138	158.4696
3200.000000	95.947	159.7959
3250.000000	95.767	161.1583
3300.000000	95.602	162.5396
3350.000000	95.451	163.9635
3400.000000	95.313	165.3954
3450.000000	95.185	166.8647
3500.000000	95.073	168.3721
3550.000000	94.970	169.8695
3600.000000	94.882	171.3501
3650.000000	94.806	172.8364
3700.000000	94.741	174.3507
3750.000000	94.682	175.8723
3820.000000	94.606	178.0023
3870.000000	94.559	179.5329
3950.000000	94.497	-177.9809
4000.000000	94.467	-176.4431
4060.000000	94.437	-174.6409
4120.000000	94.416	-172.8271
4180.000000	94.408	-171.0284
4250.000000	94.415	-168.9597
4310.000000	94.423	-167.1813
4370.000000	94.436	-165.4206
4440.000000	94.461	-163.3978
4500.000000	94.487	-161.6846
4550.000000	94.515	-160.2738
4620.000000	94.569	-158.3201
4680.000000	94.630	-156.6648
4750.000000	94.711	-154.7741
4820.000000	94.805	-152.9326
4870.000000	94.880	-151.6293
4940.000000	94.992	-149.8302
5000.000000	95.097	-148.3272
5080.000000	95.257	-146.4054
5150.000000	95.408	-144.7809
5220.000000	95.568	-143.2200
5300.000000	95.768	-141.4895
5380.000000	95.990	-139.8283
5450.000000	96.198	-138.4258
5520.000000	96.417	-137.0908
5600.000000	96.679	-135.6661
5700.000000	97.024	-134.0429
5800.000000	97.391	-132.5865
5900.000000	97.779	-131.2761
6000.000000	98.188	-130.1094
6080.000000	98.528	-129.2893
6150.000000	98.835	-128.6636
6220.000000	99.150	-128.1281
6300.000000	99.523	-127.6175
6400.000000	100.011	-127.1747
6500.000000	100.514	-126.9955
6600.000000	101.027	-127.0903
6700.000000	101.544	-127.4474
6800.000000	102.068	-128.0552
6900.000000	102.615	-128.9069
7000.000000	103.187	-130.0013
7100.000000	103.773	-131.3662
7200.000000	104.370	-133.0785
7300.000000	104.974	-135.2339
7400.000000	105.575	-137.9330
7500.000000	106.165	-141.2790
7620.000000	106.835	-146.3098
7750.000000	107.439	-153.1292
7880.000000	107.756	-161.2394
8000.000000	107.741	-169.3793
8120.000000	107.421	-177.4096
8250.000000	106.763	174.8701
8380.000000	105.866	168.7757
8500.000000	104.918	164.7858
8620.000000	103.929	162.2741
8750.000000	102.872	160.9485
8850.000000	102.099	160.7126
9000.000000	101.038	161.2942
9120.000000	100.288	162.3512
9250.000000	99.572	163.8878
9380.000000	98.952	165.6570
9500.000000	98.472	167.4215
9620.000000	98.085	169.2118
9750.000000	97.761	171.0101
9880.000000	97.538	172.5551
10000.000000	97.410	173.7504
10150.000000	97.344	174.6704
10300.000000	97.370	174.6068
10440.000000	97.447	173.5019
10600.000000	97.530	170.7435
10750.000000	97.514	166.5789
10900.000000	97.306	161.1575
11060.000000	96.785	154.6916
11200.000000	96.047	149.3215
11380.000000	94.772	143.9952
11500.000000	93.791	141.7685
11720.000000	91.890	140.4843
11800.000000	91.206	140.8451
12060.000000	89.140	144.4376
12200.000000	88.141	147.5151
12410.000000	86.794	153.2088
12500.000000	86.279	155.9788
12650.000000	85.518	160.8986
12800.000000	84.891	166.0605
13150.000000	83.911	178.7824
13200.000000	83.828	-179.3899
13400.000000	83.630	-172.2730
13600.000000	83.633	-165.5741
13800.000000	83.837	-159.5182
14000.000000	84.224	-154.2948
14300.000000	85.091	-147.9517
14500.000000	85.880	-144.9765
14750.000000	87.110	-143.1169
15000.000000	88.646	-143.7645
15250.000000	90.518	-147.8425
15500.000000	92.665	-157.1611
15750.000000	94.668	-174.1440
16000.000000	95.803	160.4778
16250.000000	95.562	131.6011
16500.000000	94.088	106.6858
16750.000000	92.016	88.2742
17000.000000	89.940	74.5242
17250.000000	88.147	63.0117
17500.000000	86.701	52.0718
17750.000000	85.565	40.6146
18000.000000	84.676	27.8668
18250.000000	83.983	13.0725
18500.000000	83.460	-4.8344
18750.000000	83.033	-27.3375
19000.000000	82.530	-56.1068
19250.000000	81.688	-92.1822
19500.000000	80.183	-134.7892
19750.000000	77.856	-177.9199
20000.000000	75.738	155.3909
