* Measurement data measured by REW V5.20.7
* Source: ???(Realtek High Definition Audi, no input selected, L, volume: no control
* Format: 128k Log Swept Sine, 1 sweep at -12.0 dBFS with no timing reference
* Dated: 13-Oct-2022 18:03:19
* REW Settings:
*  C-weighting compensation: Off
*  Target level: 75.0 dB
* Note: ; 
* Measurement: Westone Mach60 R
* Smoothing: 1/24 octave
* Frequency Step: 1/48 octave
* Start Frequency: 20.300 Hz
*
* Freq(Hz)	SPL(dB)	Phase(degrees)
20.299999	73.239	38.6730
20.600000	73.297	38.8833
20.900000	73.424	39.0057
21.200001	73.552	38.4393
21.400000	73.607	37.7270
21.799999	73.604	35.9790
22.000000	73.546	35.2045
22.400000	73.361	34.2978
22.700001	73.233	34.2037
23.000000	73.168	34.3561
23.299999	73.164	34.4017
23.600000	73.191	34.1659
24.000000	73.211	33.4451
24.299999	73.191	32.8665
24.700001	73.139	32.4113
25.000000	73.123	32.3613
25.400000	73.178	32.4317
25.799999	73.306	32.2120
26.200001	73.443	31.5042
26.500000	73.516	30.7811
26.900000	73.563	29.8539
27.200001	73.579	29.3410
27.600000	73.611	28.9092
28.000000	73.679	28.5497
28.500000	73.785	27.8492
29.000000	73.845	26.8871
29.500000	73.833	26.1196
30.000000	73.814	25.9086
30.400000	73.857	25.9506
30.700001	73.930	25.8428
31.100000	74.035	25.2094
31.500000	74.077	24.0333
32.000000	73.955	22.5416
32.500000	73.690	22.2850
33.000000	73.532	23.6212
33.500000	73.678	25.1536
34.000000	74.004	24.9851
34.500000	74.192	22.8737
35.000000	74.084	20.3642
35.500000	73.767	19.3005
36.000000	73.504	20.0520
36.500000	73.485	21.4306
37.000000	73.657	21.9821
37.500000	73.839	21.3276
38.200001	73.914	19.5119
38.700001	73.851	18.5106
39.500000	73.749	18.1073
40.000000	73.777	18.1366
40.599998	73.869	17.7024
41.200001	73.895	16.8015
41.799999	73.832	16.3066
42.500000	73.821	16.5907
43.099998	73.929	16.5080
43.700001	73.990	15.5842
44.400002	73.877	14.5584
45.000000	73.727	14.6483
45.500000	73.673	15.1387
46.200001	73.704	15.5769
46.799999	73.752	15.4857
47.500000	73.793	15.0806
48.200001	73.820	14.4437
48.700001	73.823	13.8941
49.400002	73.807	13.1343
50.000000	73.785	12.5238
50.799999	73.740	11.8139
51.500000	73.699	11.4694
52.200001	73.697	11.3228
53.000000	73.741	11.0252
53.799999	73.779	10.5099
54.500000	73.791	10.0292
55.200001	73.786	9.5904
56.000000	73.768	9.1739
57.000000	73.737	8.7519
58.000000	73.697	8.5445
59.000000	73.708	8.5487
60.000000	73.769	8.1775
60.799999	73.786	7.6396
61.500000	73.776	7.2601
62.200001	73.770	7.0101
63.000000	73.779	6.7395
64.000000	73.791	6.2966
65.000000	73.785	5.8616
66.000000	73.773	5.5019
67.000000	73.757	5.1953
68.000000	73.747	4.9986
69.000000	73.760	4.7687
70.000000	73.769	4.3699
71.000000	73.754	3.9903
72.000000	73.741	3.7153
73.000000	73.736	3.4222
74.000000	73.727	3.1116
75.000000	73.717	2.8306
76.199997	73.711	2.4827
77.500000	73.702	2.0988
78.800003	73.697	1.7498
80.000000	73.698	1.4070
81.199997	73.695	1.0624
82.500000	73.688	0.7448
83.800003	73.682	0.4723
85.000000	73.678	0.2229
86.199997	73.673	-0.0503
87.500000	73.665	-0.3619
88.500000	73.657	-0.6085
90.000000	73.644	-0.9768
91.199997	73.634	-1.2445
92.500000	73.626	-1.5168
93.800003	73.619	-1.7840
95.000000	73.612	-2.0335
96.199997	73.604	-2.2714
97.500000	73.598	-2.5352
98.800003	73.592	-2.8133
100.000000	73.585	-3.0712
101.500000	73.573	-3.3744
103.000000	73.562	-3.6677
104.400002	73.551	-3.9486
106.000000	73.537	-4.2586
107.500000	73.527	-4.5517
109.000000	73.518	-4.8487
110.599998	73.509	-5.1506
112.000000	73.500	-5.3958
113.800003	73.489	-5.6680
115.000000	73.483	-5.8435
117.199997	73.465	-6.1807
118.000000	73.456	-6.2951
120.599998	73.435	-6.6533
122.000000	73.427	-6.8898
124.099998	73.410	-7.2483
125.000000	73.402	-7.3896
126.500000	73.390	-7.6072
128.000000	73.378	-7.8117
131.500000	73.350	-8.3220
132.000000	73.345	-8.3949
134.000000	73.328	-8.6699
136.000000	73.314	-8.9321
138.000000	73.298	-9.1982
140.000000	73.277	-9.4505
143.000000	73.253	-9.8112
145.000000	73.242	-10.0581
147.500000	73.231	-10.3512
150.000000	73.221	-10.6461
152.500000	73.209	-10.9639
155.000000	73.199	-11.2889
157.500000	73.188	-11.6267
160.000000	73.170	-11.9529
162.500000	73.146	-12.2643
165.000000	73.123	-12.5711
167.500000	73.105	-12.9074
170.000000	73.088	-13.2631
172.500000	73.070	-13.5904
175.000000	73.054	-13.8972
177.500000	73.035	-14.1967
180.000000	73.015	-14.4732
182.500000	72.992	-14.7314
185.000000	72.968	-15.0006
187.500000	72.943	-15.2704
190.000000	72.923	-15.5103
192.500000	72.904	-15.7480
195.000000	72.880	-15.9997
197.500000	72.853	-16.2532
200.000000	72.827	-16.4844
203.000000	72.800	-16.7323
206.000000	72.770	-16.9676
209.000000	72.736	-17.1920
212.000000	72.703	-17.4088
214.000000	72.682	-17.5510
218.000000	72.639	-17.8434
220.000000	72.617	-17.9844
224.000000	72.583	-18.2258
227.000000	72.565	-18.4043
230.000000	72.551	-18.6055
233.000000	72.538	-18.8324
236.000000	72.527	-19.0817
240.000000	72.516	-19.4513
243.000000	72.507	-19.7706
247.000000	72.486	-20.2272
250.000000	72.466	-20.5673
254.000000	72.433	-21.0107
258.000000	72.392	-21.4047
262.000000	72.350	-21.7513
265.000000	72.319	-21.9997
269.000000	72.278	-22.3153
272.000000	72.249	-22.5440
276.000000	72.209	-22.8523
280.000000	72.167	-23.1712
285.000000	72.119	-23.5476
290.000000	72.073	-23.8948
295.000000	72.023	-24.2172
300.000000	71.973	-24.5302
304.000000	71.938	-24.7864
307.000000	71.912	-24.9793
311.000000	71.873	-25.2388
315.000000	71.833	-25.4901
320.000000	71.782	-25.7948
325.000000	71.730	-26.0984
330.000000	71.680	-26.3608
335.000000	71.624	-26.5996
340.000000	71.565	-26.8375
345.000000	71.508	-27.0410
350.000000	71.454	-27.2279
355.000000	71.402	-27.4250
360.000000	71.348	-27.6070
365.000000	71.292	-27.7595
370.000000	71.234	-27.8844
375.000000	71.182	-27.9966
382.000000	71.133	-28.0859
387.000000	71.115	-28.1272
395.000000	71.104	-28.3599
400.000000	71.097	-28.6280
406.000000	71.072	-29.0320
412.000000	71.028	-29.4512
418.000000	70.974	-29.8198
425.000000	70.908	-30.1993
431.000000	70.847	-30.4981
437.000000	70.788	-30.7604
444.000000	70.726	-31.0289
450.000000	70.671	-31.2515
455.000000	70.623	-31.4184
462.000000	70.556	-31.6113
468.000000	70.499	-31.7525
475.000000	70.438	-31.9405
482.000000	70.380	-32.1178
487.000000	70.335	-32.2382
494.000000	70.272	-32.4043
500.000000	70.219	-32.5386
508.000000	70.148	-32.6975
515.000000	70.087	-32.8291
522.000000	70.029	-32.9314
530.000000	69.963	-33.0448
538.000000	69.897	-33.1566
545.000000	69.840	-33.2390
552.000000	69.780	-33.3143
560.000000	69.710	-33.3946
570.000000	69.624	-33.4627
580.000000	69.544	-33.5010
590.000000	69.462	-33.5362
600.000000	69.380	-33.5477
608.000000	69.317	-33.5627
615.000000	69.266	-33.5715
622.000000	69.217	-33.5588
630.000000	69.161	-33.5345
640.000000	69.091	-33.5009
650.000000	69.021	-33.4347
660.000000	68.952	-33.3564
670.000000	68.887	-33.2584
680.000000	68.824	-33.1470
690.000000	68.763	-33.0258
700.000000	68.709	-32.8954
710.000000	68.658	-32.7511
720.000000	68.606	-32.5868
730.000000	68.557	-32.4169
740.000000	68.509	-32.2272
750.000000	68.464	-31.9972
762.000000	68.412	-31.7115
775.000000	68.357	-31.3820
788.000000	68.303	-31.0414
800.000000	68.254	-30.7215
812.000000	68.214	-30.3887
825.000000	68.180	-30.0378
838.000000	68.148	-29.6747
850.000000	68.124	-29.3400
862.000000	68.106	-28.9726
875.000000	68.095	-28.5554
885.000000	68.088	-28.2454
900.000000	68.081	-27.7934
912.000000	68.082	-27.4263
925.000000	68.085	-27.0297
938.000000	68.091	-26.6566
950.000000	68.103	-26.3317
962.000000	68.120	-26.0287
975.000000	68.141	-25.6981
988.000000	68.172	-25.3758
1000.000000	68.208	-25.0973
1015.000000	68.248	-24.7803
1030.000000	68.283	-24.4741
1044.000000	68.322	-24.2178
1060.000000	68.370	-23.9625
1075.000000	68.414	-23.7390
1090.000000	68.457	-23.5598
1106.000000	68.510	-23.4159
1120.000000	68.559	-23.3222
1138.000000	68.623	-23.2311
1150.000000	68.666	-23.1888
1172.000000	68.738	-23.1220
1180.000000	68.765	-23.1027
1206.000000	68.855	-23.0399
1220.000000	68.909	-23.0068
1241.000000	68.999	-22.9848
1250.000000	69.042	-22.9789
1265.000000	69.111	-22.9814
1280.000000	69.180	-23.0073
1315.000000	69.349	-23.0644
1320.000000	69.373	-23.0737
1340.000000	69.471	-23.1006
1360.000000	69.573	-23.1063
1380.000000	69.681	-23.1065
1400.000000	69.795	-23.1094
1430.000000	69.968	-23.1298
1450.000000	70.087	-23.1604
1475.000000	70.244	-23.1887
1500.000000	70.408	-23.2297
1525.000000	70.572	-23.2841
1550.000000	70.735	-23.3690
1575.000000	70.901	-23.4932
1600.000000	71.072	-23.6381
1625.000000	71.251	-23.8257
1650.000000	71.435	-24.0824
1675.000000	71.622	-24.3961
1700.000000	71.812	-24.7408
1725.000000	72.006	-25.1484
1750.000000	72.200	-25.6186
1775.000000	72.391	-26.1557
1800.000000	72.580	-26.7679
1825.000000	72.766	-27.4244
1850.000000	72.949	-28.1374
1875.000000	73.126	-28.8910
1900.000000	73.295	-29.6737
1925.000000	73.455	-30.4820
1950.000000	73.605	-31.3106
1975.000000	73.745	-32.1630
2000.000000	73.875	-33.0311
2030.000000	74.021	-34.0692
2060.000000	74.153	-35.0996
2090.000000	74.272	-36.1202
2120.000000	74.380	-37.1220
2140.000000	74.446	-37.7788
2180.000000	74.568	-39.0586
2200.000000	74.624	-39.6806
2240.000000	74.726	-40.8888
2270.000000	74.796	-41.7630
2300.000000	74.861	-42.6138
2330.000000	74.921	-43.4568
2360.000000	74.979	-44.2851
2400.000000	75.056	-45.3620
2430.000000	75.110	-46.1859
2470.000000	75.173	-47.3133
2500.000000	75.213	-48.1648
2540.000000	75.258	-49.2851
2580.000000	75.293	-50.3828
2620.000000	75.321	-51.4596
2650.000000	75.339	-52.2600
2690.000000	75.354	-53.3258
2720.000000	75.354	-54.1260
2760.000000	75.335	-55.1871
2800.000000	75.296	-56.1726
2850.000000	75.228	-57.1992
2900.000000	75.152	-58.0588
2950.000000	75.068	-58.7764
3000.000000	74.972	-59.3170
3040.000000	74.892	-59.5454
3070.000000	74.839	-59.5673
3110.000000	74.788	-59.4375
3150.000000	74.767	-59.1974
3200.000000	74.790	-58.8865
3250.000000	74.862	-58.7558
3300.000000	74.954	-58.9454
3350.000000	75.031	-59.4481
3400.000000	75.077	-60.1318
3450.000000	75.086	-60.8402
3500.000000	75.069	-61.4663
3550.000000	75.035	-61.9790
3600.000000	74.993	-62.3822
3650.000000	74.950	-62.6884
3700.000000	74.906	-62.9002
3750.000000	74.864	-63.0546
3820.000000	74.808	-63.1993
3870.000000	74.768	-63.2445
3950.000000	74.706	-63.2122
4000.000000	74.667	-63.1273
4060.000000	74.619	-62.9806
4120.000000	74.571	-62.7805
4180.000000	74.526	-62.5270
4250.000000	74.477	-62.2710
4310.000000	74.420	-62.1010
4370.000000	74.346	-61.8290
4440.000000	74.258	-61.3819
4500.000000	74.185	-60.9721
4550.000000	74.119	-60.6318
4620.000000	74.016	-60.1354
4680.000000	73.917	-59.6777
4750.000000	73.788	-59.0951
4820.000000	73.639	-58.4171
4870.000000	73.518	-57.8494
4940.000000	73.336	-56.8997
5000.000000	73.176	-55.9351
5080.000000	72.968	-54.4574
5150.000000	72.797	-53.0030
5220.000000	72.638	-51.4457
5300.000000	72.469	-49.5655
5380.000000	72.314	-47.5681
5450.000000	72.189	-45.7080
5520.000000	72.075	-43.7579
5600.000000	71.962	-41.4512
5700.000000	71.852	-38.4780
5800.000000	71.776	-35.4424
5900.000000	71.731	-32.3820
6000.000000	71.716	-29.3054
6080.000000	71.724	-26.8087
6150.000000	71.751	-24.6046
6220.000000	71.800	-22.3895
6300.000000	71.885	-19.8719
6400.000000	72.028	-16.8079
6500.000000	72.209	-13.8561
6600.000000	72.422	-11.0439
6700.000000	72.666	-8.3380
6800.000000	72.949	-5.7322
6900.000000	73.286	-3.2981
7000.000000	73.681	-1.1305
7100.000000	74.123	0.7273
7200.000000	74.613	2.3039
7300.000000	75.192	3.5727
7400.000000	75.907	4.1572
7500.000000	76.734	3.2622
7620.000000	77.686	-0.7797
7750.000000	78.329	-8.8986
7880.000000	78.303	-19.0623
8000.000000	77.665	-27.6754
8120.000000	76.596	-33.7966
8250.000000	75.213	-37.2109
8380.000000	73.803	-37.8499
8500.000000	72.578	-36.6784
8620.000000	71.461	-34.3622
8750.000000	70.379	-30.9880
8850.000000	69.631	-27.9961
9000.000000	68.630	-23.1199
9120.000000	67.917	-19.0162
9250.000000	67.215	-14.4522
9380.000000	66.578	-9.7617
9500.000000	66.045	-5.3385
9620.000000	65.556	-0.8681
9750.000000	65.071	3.9979
9880.000000	64.629	8.8958
10000.000000	64.261	13.4388
10150.000000	63.853	19.1181
10300.000000	63.500	24.7796
10440.000000	63.218	29.9318
10600.000000	62.945	35.6140
10750.000000	62.732	40.7463
10900.000000	62.542	45.6586
11060.000000	62.358	50.5818
11200.000000	62.206	54.5791
11380.000000	61.988	59.2249
11500.000000	61.808	62.1411
11720.000000	61.399	67.9775
11800.000000	61.268	70.4022
12060.000000	61.070	77.7241
12200.000000	60.988	80.7616
12410.000000	60.794	85.0243
12500.000000	60.697	86.9028
12650.000000	60.533	90.1114
12800.000000	60.381	93.4347
13150.000000	60.105	101.5182
13200.000000	60.082	102.6796
13400.000000	60.042	107.2667
13600.000000	60.110	111.5104
13800.000000	60.327	115.2133
14000.000000	60.646	118.1762
14300.000000	61.179	120.8953
14500.000000	61.529	121.4423
14750.000000	61.929	120.6190
15000.000000	62.222	117.9556
15250.000000	62.328	113.2421
15500.000000	62.074	106.9248
15750.000000	61.475	100.7816
16000.000000	60.796	93.6898
16250.000000	59.641	84.8038
16500.000000	57.648	79.0696
16750.000000	55.341	79.3844
17000.000000	53.471	81.9349
17250.000000	51.854	84.2398
17500.000000	50.151	88.3372
17750.000000	48.719	93.8079
18000.000000	47.760	97.3914
18250.000000	47.059	97.8200
18500.000000	46.307	96.1320
18750.000000	45.315	93.8567
19000.000000	44.169	92.5717
19250.000000	43.052	92.8125
19500.000000	42.262	93.1261
19750.000000	41.787	92.9608
20000.000000	41.460	93.2759
