* Measurement data measured by REW V5.20.5
* Source: 마이크(7- USB Sound Device       , MICROPHONE (마스), L, volume: 0.560
* Format: 128k Log Swept Sine, 2 sweeps at -15.0 dBFS with no timing reference
* Dated: 2022. 4. 19 오후 9:59:03
* REW Settings:
*  C-weighting compensation: Off
*  Target level: 75.0 dB
* Note: 
* Measurement: R
* Smoothing: 1/24 octave
* Frequency Step: 1/48 octave
* Start Frequency: 20.300 Hz
*
* Freq(Hz)	SPL(dB)	Phase(degrees)
20.299999	117.309	-156.0798
20.600000	117.315	-156.4089
20.900000	117.325	-156.9948
21.200001	117.329	-157.5488
21.400000	117.328	-157.9066
21.799999	117.319	-158.6343
22.000000	117.312	-159.0144
22.400000	117.296	-159.7976
22.700001	117.281	-160.3978
23.000000	117.267	-161.0075
23.299999	117.254	-161.6250
23.600000	117.242	-162.2498
24.000000	117.231	-163.0917
24.299999	117.225	-163.7253
24.700001	117.219	-164.5636
25.000000	117.218	-165.1800
25.400000	117.218	-165.9769
25.799999	117.222	-166.7399
26.200001	117.227	-167.4668
26.500000	117.232	-167.9880
26.900000	117.239	-168.6512
27.200001	117.244	-169.1251
27.600000	117.249	-169.7267
28.000000	117.251	-170.2967
28.500000	117.250	-170.9709
29.000000	117.243	-171.6116
29.500000	117.231	-172.2276
30.000000	117.214	-172.8299
30.400000	117.198	-173.3089
30.700001	117.185	-173.6690
31.100000	117.165	-174.1518
31.500000	117.143	-174.6374
32.000000	117.115	-175.2469
32.500000	117.087	-175.8572
33.000000	117.060	-176.4663
33.500000	117.035	-177.0716
34.000000	117.012	-177.6690
34.500000	116.991	-178.2545
35.000000	116.972	-178.8246
35.500000	116.954	-179.3760
36.000000	116.936	-179.9069
36.500000	116.918	179.5837
37.000000	116.898	179.0958
37.500000	116.877	178.6285
38.200001	116.845	178.0043
38.700001	116.821	177.5743
39.500000	116.778	176.9012
40.000000	116.749	176.4853
40.599998	116.713	175.9887
41.200001	116.676	175.4937
41.799999	116.639	175.0018
42.500000	116.597	174.4358
43.099998	116.563	173.9593
43.700001	116.529	173.4907
44.400002	116.491	172.9577
45.000000	116.459	172.5189
45.500000	116.432	172.1685
46.200001	116.395	171.6987
46.799999	116.362	171.3098
47.500000	116.323	170.8683
48.200001	116.281	170.4411
48.700001	116.251	170.1442
49.400002	116.208	169.7353
50.000000	116.171	169.3871
50.799999	116.121	168.9271
51.500000	116.077	168.5309
52.200001	116.035	168.1384
53.000000	115.987	167.6964
53.799999	115.940	167.2732
54.500000	115.899	166.9206
55.200001	115.858	166.5811
56.000000	115.810	166.2118
57.000000	115.750	165.7748
58.000000	115.689	165.3483
59.000000	115.626	164.9417
60.000000	115.566	164.5417
60.799999	115.518	164.2086
61.500000	115.475	163.9173
62.200001	115.432	163.6377
63.000000	115.383	163.3339
64.000000	115.325	162.9717
65.000000	115.267	162.6269
66.000000	115.210	162.3018
67.000000	115.152	161.9936
68.000000	115.093	161.6947
69.000000	115.034	161.4020
70.000000	114.975	161.1140
71.000000	114.916	160.8351
72.000000	114.858	160.5648
73.000000	114.801	160.3018
74.000000	114.745	160.0507
75.000000	114.689	159.8124
76.199997	114.622	159.5416
77.500000	114.548	159.2640
78.800003	114.475	159.0057
80.000000	114.409	158.7777
81.199997	114.344	158.5517
82.500000	114.276	158.3084
83.800003	114.207	158.0785
85.000000	114.143	157.8852
86.199997	114.080	157.7140
87.500000	114.010	157.5522
88.500000	113.956	157.4507
90.000000	113.883	157.3087
91.199997	113.827	157.1313
92.500000	113.759	156.9236
93.800003	113.688	156.7602
95.000000	113.626	156.6382
96.199997	113.568	156.5246
97.500000	113.505	156.4104
98.800003	113.443	156.3046
100.000000	113.386	156.2100
101.500000	113.314	156.0940
103.000000	113.243	155.9863
104.400002	113.180	155.8936
106.000000	113.109	155.7970
107.500000	113.042	155.7196
109.000000	112.975	155.6557
110.599998	112.904	155.5960
112.000000	112.844	155.5464
113.800003	112.767	155.4865
115.000000	112.716	155.4508
117.199997	112.625	155.3969
118.000000	112.592	155.3816
120.599998	112.486	155.3595
122.000000	112.432	155.3535
124.099998	112.351	155.3442
125.000000	112.317	155.3430
126.500000	112.259	155.3484
128.000000	112.202	155.3634
131.500000	112.071	155.4134
132.000000	112.053	155.4223
134.000000	111.979	155.4625
136.000000	111.907	155.5062
138.000000	111.836	155.5500
140.000000	111.767	155.5923
143.000000	111.666	155.6643
145.000000	111.600	155.7393
147.500000	111.520	155.8533
150.000000	111.442	155.9456
152.500000	111.362	156.0283
155.000000	111.284	156.1710
157.500000	111.211	156.3290
160.000000	111.136	156.4725
162.500000	111.064	156.6040
165.000000	110.995	156.7509
167.500000	110.928	156.9181
170.000000	110.861	157.0837
172.500000	110.796	157.2341
175.000000	110.733	157.3997
177.500000	110.671	157.5870
180.000000	110.610	157.7726
182.500000	110.548	157.9506
185.000000	110.488	158.1394
187.500000	110.429	158.3454
190.000000	110.373	158.5457
192.500000	110.318	158.7401
195.000000	110.264	158.9488
197.500000	110.211	159.1631
200.000000	110.157	159.3712
203.000000	110.097	159.6162
206.000000	110.045	159.8770
209.000000	109.994	160.1627
212.000000	109.940	160.4549
214.000000	109.905	160.6435
218.000000	109.835	161.0173
220.000000	109.801	161.2043
224.000000	109.736	161.5801
227.000000	109.691	161.8458
230.000000	109.649	162.0853
233.000000	109.608	162.3062
236.000000	109.569	162.5237
240.000000	109.514	162.8254
243.000000	109.469	163.0565
247.000000	109.413	163.3354
250.000000	109.376	163.5345
254.000000	109.330	163.8292
258.000000	109.282	164.1503
262.000000	109.230	164.4701
265.000000	109.190	164.6927
269.000000	109.142	164.9820
272.000000	109.110	165.2184
276.000000	109.066	165.5570
280.000000	109.019	165.8851
285.000000	108.960	166.2754
290.000000	108.905	166.6986
295.000000	108.855	167.1328
300.000000	108.806	167.5586
304.000000	108.766	167.8761
307.000000	108.739	168.1140
311.000000	108.702	168.4410
315.000000	108.666	168.7656
320.000000	108.623	169.1647
325.000000	108.581	169.5663
330.000000	108.540	169.9753
335.000000	108.500	170.3741
340.000000	108.463	170.7809
345.000000	108.426	171.1868
350.000000	108.390	171.5999
355.000000	108.357	172.0139
360.000000	108.326	172.4181
365.000000	108.296	172.8050
370.000000	108.267	173.1885
375.000000	108.239	173.5839
382.000000	108.198	174.1428
387.000000	108.169	174.5248
395.000000	108.128	175.1356
400.000000	108.103	175.5276
406.000000	108.074	175.9997
412.000000	108.046	176.4647
418.000000	108.020	176.9286
425.000000	107.992	177.4662
431.000000	107.969	177.9187
437.000000	107.947	178.3727
444.000000	107.920	178.8991
450.000000	107.899	179.3496
455.000000	107.882	179.7237
462.000000	107.859	-179.7583
468.000000	107.842	-179.3139
475.000000	107.822	-178.7903
482.000000	107.803	-178.2693
487.000000	107.791	-177.9035
494.000000	107.774	-177.3950
500.000000	107.761	-176.9553
508.000000	107.745	-176.3676
515.000000	107.732	-175.8589
522.000000	107.720	-175.3482
530.000000	107.708	-174.7654
538.000000	107.697	-174.1913
545.000000	107.689	-173.6951
552.000000	107.681	-173.1982
560.000000	107.672	-172.6266
570.000000	107.663	-171.9075
580.000000	107.656	-171.1890
590.000000	107.651	-170.4815
600.000000	107.649	-169.7739
608.000000	107.649	-169.2084
615.000000	107.649	-168.7183
622.000000	107.648	-168.2366
630.000000	107.649	-167.6834
640.000000	107.653	-166.9782
650.000000	107.660	-166.2701
660.000000	107.667	-165.5698
670.000000	107.674	-164.8731
680.000000	107.684	-164.1767
690.000000	107.697	-163.4895
700.000000	107.710	-162.7986
710.000000	107.723	-162.0930
720.000000	107.734	-161.3723
730.000000	107.750	-160.6083
740.000000	107.777	-159.8013
750.000000	107.822	-159.0411
762.000000	107.878	-158.2632
775.000000	107.927	-157.4760
788.000000	107.973	-156.6619
800.000000	108.018	-155.8923
812.000000	108.067	-155.1281
825.000000	108.125	-154.3093
838.000000	108.187	-153.5041
850.000000	108.251	-152.7801
862.000000	108.319	-152.0764
875.000000	108.396	-151.3448
885.000000	108.457	-150.8226
900.000000	108.550	-150.1099
912.000000	108.620	-149.6097
925.000000	108.687	-149.1325
938.000000	108.736	-148.6791
950.000000	108.762	-148.1988
962.000000	108.778	-147.5662
975.000000	108.804	-146.6713
988.000000	108.862	-145.6544
1000.000000	108.945	-144.7319
1015.000000	109.073	-143.7059
1030.000000	109.213	-142.8452
1044.000000	109.345	-142.1631
1060.000000	109.494	-141.4904
1075.000000	109.630	-140.9395
1090.000000	109.764	-140.4538
1106.000000	109.904	-139.9851
1120.000000	110.023	-139.6123
1138.000000	110.171	-139.1817
1150.000000	110.267	-138.9145
1172.000000	110.439	-138.4573
1180.000000	110.500	-138.3058
1206.000000	110.694	-137.8549
1220.000000	110.794	-137.6332
1241.000000	110.941	-137.3259
1250.000000	111.002	-137.1976
1265.000000	111.104	-136.9888
1280.000000	111.204	-136.7911
1315.000000	111.429	-136.3564
1320.000000	111.460	-136.2958
1340.000000	111.584	-136.0620
1360.000000	111.707	-135.8360
1380.000000	111.827	-135.6059
1400.000000	111.946	-135.3848
1430.000000	112.123	-135.0665
1450.000000	112.240	-134.8555
1475.000000	112.385	-134.6003
1500.000000	112.531	-134.3551
1525.000000	112.678	-134.1117
1550.000000	112.827	-133.8700
1575.000000	112.976	-133.6449
1600.000000	113.127	-133.4248
1625.000000	113.280	-133.2129
1650.000000	113.436	-133.0159
1675.000000	113.595	-132.8295
1700.000000	113.759	-132.6560
1725.000000	113.929	-132.5039
1750.000000	114.104	-132.3725
1775.000000	114.287	-132.2717
1800.000000	114.479	-132.2191
1825.000000	114.680	-132.2374
1850.000000	114.889	-132.3489
1875.000000	115.103	-132.5728
1900.000000	115.319	-132.9321
1925.000000	115.531	-133.4422
1950.000000	115.732	-134.1053
1975.000000	115.919	-134.8959
2000.000000	116.087	-135.7767
2030.000000	116.261	-136.9030
2060.000000	116.410	-138.0477
2090.000000	116.538	-139.1711
2120.000000	116.650	-140.2549
2140.000000	116.718	-140.9547
2180.000000	116.839	-142.3044
2200.000000	116.895	-142.9578
2240.000000	116.997	-144.2328
2270.000000	117.066	-145.1672
2300.000000	117.129	-146.0839
2330.000000	117.185	-146.9837
2360.000000	117.237	-147.8660
2400.000000	117.298	-149.0116
2430.000000	117.338	-149.8437
2470.000000	117.387	-150.9164
2500.000000	117.419	-151.6925
2540.000000	117.458	-152.6956
2580.000000	117.495	-153.6673
2620.000000	117.529	-154.6077
2650.000000	117.554	-155.3006
2690.000000	117.586	-156.2178
2720.000000	117.608	-156.9027
2760.000000	117.634	-157.8140
2800.000000	117.655	-158.7274
2850.000000	117.671	-159.8649
2900.000000	117.676	-160.9784
2950.000000	117.668	-162.0478
3000.000000	117.646	-163.0521
3040.000000	117.622	-163.7946
3070.000000	117.601	-164.3106
3110.000000	117.570	-164.9421
3150.000000	117.539	-165.5135
3200.000000	117.502	-166.1581
3250.000000	117.469	-166.7532
3300.000000	117.440	-167.3235
3350.000000	117.412	-167.8771
3400.000000	117.386	-168.4022
3450.000000	117.361	-168.8884
3500.000000	117.342	-169.3359
3550.000000	117.331	-169.7516
3600.000000	117.330	-170.1488
3650.000000	117.340	-170.5420
3700.000000	117.361	-170.9504
3750.000000	117.394	-171.3964
3820.000000	117.459	-172.1169
3870.000000	117.517	-172.7182
3950.000000	117.623	-173.8814
4000.000000	117.693	-174.7527
4060.000000	117.777	-175.9533
4120.000000	117.856	-177.3347
4180.000000	117.925	-178.9009
4250.000000	117.986	179.0462
4310.000000	118.014	177.1064
4370.000000	118.015	175.0223
4440.000000	117.975	172.4574
4500.000000	117.903	170.1854
4550.000000	117.813	168.2727
4620.000000	117.642	165.6217
4680.000000	117.454	163.4263
4750.000000	117.187	161.0204
4820.000000	116.876	158.8416
4870.000000	116.629	157.4509
4940.000000	116.258	155.7623
5000.000000	115.920	154.5688
5080.000000	115.450	153.3453
5150.000000	115.029	152.6139
5220.000000	114.606	152.1877
5300.000000	114.126	152.0463
5380.000000	113.658	152.2410
5450.000000	113.261	152.6589
5520.000000	112.878	153.2839
5600.000000	112.460	154.2272
5700.000000	111.967	155.7137
5800.000000	111.510	157.5370
5900.000000	111.094	159.7462
6000.000000	110.748	162.3727
6080.000000	110.550	164.5993
6150.000000	110.426	166.4061
6220.000000	110.316	168.0294
6300.000000	110.188	169.8224
6400.000000	110.037	172.1852
6500.000000	109.924	174.7033
6600.000000	109.862	177.3029
6700.000000	109.852	179.9222
6800.000000	109.900	-177.4692
6900.000000	110.013	-174.9297
7000.000000	110.192	-172.5082
7100.000000	110.444	-170.2796
7200.000000	110.773	-168.3456
7300.000000	111.181	-166.8238
7400.000000	111.669	-165.8486
7500.000000	112.233	-165.5986
7620.000000	112.996	-166.6210
7750.000000	113.855	-169.9824
7880.000000	114.588	-176.2691
8000.000000	114.958	175.4046
8120.000000	114.877	165.7065
8250.000000	114.235	155.6808
8380.000000	113.131	147.9860
8500.000000	111.880	143.5396
8620.000000	110.560	141.4187
8750.000000	109.163	141.2140
8850.000000	108.150	142.1872
9000.000000	106.756	145.0364
9120.000000	105.754	148.2921
9250.000000	104.789	152.6389
9380.000000	103.964	157.7195
9500.000000	103.343	162.9149
9620.000000	102.870	168.3823
9750.000000	102.522	174.3320
9880.000000	102.323	-179.9262
10000.000000	102.241	-174.9114
10150.000000	102.231	-169.0406
10300.000000	102.298	-163.5230
10440.000000	102.429	-158.5550
10600.000000	102.661	-152.9831
10750.000000	102.974	-147.8385
10900.000000	103.402	-142.7818
11060.000000	104.016	-137.5202
11200.000000	104.727	-133.1186
11380.000000	105.964	-128.0698
11500.000000	107.052	-125.5138
11720.000000	109.555	-124.9105
11800.000000	110.514	-126.8991
12060.000000	112.869	-143.6675
12200.000000	113.298	-157.2354
12410.000000	112.723	-177.0948
12500.000000	112.105	176.0782
12650.000000	110.755	167.8902
12800.000000	109.226	163.4899
13150.000000	105.930	163.1008
13200.000000	105.533	163.7391
13400.000000	104.151	167.2494
13600.000000	103.073	171.7394
13800.000000	102.260	176.7455
14000.000000	101.685	-178.0219
14300.000000	101.242	-170.2054
14500.000000	101.233	-165.3077
14750.000000	101.544	-160.0018
15000.000000	102.218	-156.1598
15250.000000	103.254	-154.5365
15500.000000	104.607	-156.3572
15750.000000	106.050	-163.2617
16000.000000	107.192	-176.1241
16250.000000	107.711	166.4007
16500.000000	107.658	147.0020
16750.000000	107.498	125.8591
17000.000000	108.079	96.5052
17250.000000	108.237	41.3281
17500.000000	105.448	-26.8455
17750.000000	100.042	-82.8984
18000.000000	94.447	-125.9999
18250.000000	91.049	-157.5571
18500.000000	88.953	-178.2456
18750.000000	86.849	169.8317
19000.000000	84.512	164.3030
19250.000000	81.979	163.5815
19500.000000	79.278	167.7535
19750.000000	76.900	174.1371
20000.000000	75.624	177.8033
