* Measurement data measured by REW V5.20.13
* Source: 마이크(2- Realtek(R) Audi, MICROPHONE (마스), L, volume: 0.300
* Format: 128k Log Swept Sine, 2 sweeps at -28.0 dBFS with no timing reference
* Dated: 2023. 3. 31 오후 9:24:14
* REW Settings:
*  C-weighting compensation: Off
*  Target level: 75.0 dB
* Note: 
* Measurement: 3월 31
* Smoothing: 1/24 octave
* Frequency Step: 1/48 octave
* Start Frequency: 20.300 Hz
*
* Freq(Hz)	SPL(dB)	Phase(degrees)
20.299999	79.704	8.5036
20.600000	79.693	8.1538
20.900000	79.669	7.5379
21.200001	79.642	6.9729
21.400000	79.624	6.6169
21.799999	79.587	5.9043
22.000000	79.567	5.5322
22.400000	79.528	4.7584
22.700001	79.498	4.1570
23.000000	79.468	3.5398
23.299999	79.439	2.9128
23.600000	79.410	2.2803
24.000000	79.376	1.4337
24.299999	79.352	0.7987
24.700001	79.324	-0.0466
25.000000	79.304	-0.6775
25.400000	79.278	-1.5083
25.799999	79.249	-2.3132
26.200001	79.218	-3.0743
26.500000	79.194	-3.6084
26.900000	79.160	-4.2697
27.200001	79.134	-4.7325
27.600000	79.100	-5.3168
28.000000	79.066	-5.8769
28.500000	79.018	-6.5519
29.000000	78.965	-7.1957
29.500000	78.907	-7.8059
30.000000	78.847	-8.3940
30.400000	78.800	-8.8602
30.700001	78.764	-9.2110
31.100000	78.715	-9.6811
31.500000	78.667	-10.1525
32.000000	78.609	-10.7429
32.500000	78.552	-11.3358
33.000000	78.497	-11.9297
33.500000	78.444	-12.5174
34.000000	78.392	-13.0912
34.500000	78.343	-13.6495
35.000000	78.294	-14.1946
35.500000	78.246	-14.7270
36.000000	78.198	-15.2430
36.500000	78.148	-15.7399
37.000000	78.097	-16.2198
37.500000	78.046	-16.6870
38.200001	77.972	-17.3241
38.700001	77.918	-17.7657
39.500000	77.831	-18.4489
40.000000	77.779	-18.8681
40.599998	77.716	-19.3675
41.200001	77.652	-19.8532
41.799999	77.589	-20.3087
42.500000	77.518	-20.7992
43.099998	77.459	-21.2011
43.700001	77.400	-21.5928
44.400002	77.327	-22.0226
45.000000	77.264	-22.3599
45.500000	77.210	-22.6288
46.200001	77.135	-23.0057
46.799999	77.068	-23.3328
47.500000	76.989	-23.7135
48.200001	76.911	-24.0998
48.700001	76.856	-24.3844
49.400002	76.781	-24.7898
50.000000	76.720	-25.1343
50.799999	76.642	-25.5857
51.500000	76.576	-25.9629
52.200001	76.513	-26.2978
53.000000	76.445	-26.6229
53.799999	76.381	-26.9185
54.500000	76.323	-27.1606
55.200001	76.261	-27.3746
56.000000	76.186	-27.5925
57.000000	76.088	-27.8672
58.000000	75.980	-28.1493
59.000000	75.870	-28.4277
60.000000	75.767	-28.7454
60.799999	75.687	-29.0366
61.500000	75.620	-29.2969
62.200001	75.557	-29.5597
63.000000	75.491	-29.8719
64.000000	75.408	-30.2389
65.000000	75.328	-30.5134
66.000000	75.257	-30.7337
67.000000	75.184	-30.9375
68.000000	75.106	-31.0922
69.000000	75.027	-31.2223
70.000000	74.946	-31.3663
71.000000	74.861	-31.5213
72.000000	74.776	-31.6982
73.000000	74.692	-31.8857
74.000000	74.611	-32.0655
75.000000	74.535	-32.2280
76.199997	74.452	-32.3805
77.500000	74.371	-32.5511
78.800003	74.282	-32.7289
80.000000	74.187	-32.8500
81.199997	74.088	-32.9082
82.500000	73.988	-32.9867
83.800003	73.893	-33.1128
85.000000	73.815	-33.2540
86.199997	73.743	-33.4127
87.500000	73.674	-33.5249
88.500000	73.632	-33.6054
90.000000	73.552	-33.8661
91.199997	73.449	-33.9095
92.500000	73.349	-33.7709
93.800003	73.262	-33.6990
95.000000	73.184	-33.7014
96.199997	73.110	-33.7445
97.500000	73.033	-33.7984
98.800003	72.960	-33.8361
100.000000	72.892	-33.8501
101.500000	72.799	-33.8452
103.000000	72.702	-33.7703
104.400002	72.626	-33.7110
106.000000	72.547	-33.7787
107.500000	72.469	-33.8463
109.000000	72.389	-33.8089
110.599998	72.320	-33.6592
112.000000	72.261	-33.6271
113.800003	72.162	-33.5996
115.000000	72.093	-33.5553
117.199997	71.978	-33.4631
118.000000	71.941	-33.4282
120.599998	71.828	-33.3594
122.000000	71.761	-33.3304
124.099998	71.657	-33.2177
125.000000	71.616	-33.1615
126.500000	71.550	-33.0733
128.000000	71.488	-32.9879
131.500000	71.342	-32.7590
132.000000	71.321	-32.7195
134.000000	71.238	-32.5625
136.000000	71.158	-32.4466
138.000000	71.076	-32.3388
140.000000	70.995	-32.1653
143.000000	70.879	-31.8866
145.000000	70.799	-31.7673
147.500000	70.710	-31.6554
150.000000	70.643	-31.4833
152.500000	70.582	-31.2467
155.000000	70.477	-31.0647
157.500000	70.355	-30.8319
160.000000	70.259	-30.6841
162.500000	70.180	-30.5188
165.000000	70.110	-30.1860
167.500000	70.061	-29.8084
170.000000	70.020	-29.5644
172.500000	69.957	-29.4017
175.000000	69.873	-29.2232
177.500000	69.786	-29.0725
180.000000	69.704	-28.8709
182.500000	69.647	-28.5476
185.000000	69.598	-28.2659
187.500000	69.532	-28.0390
190.000000	69.457	-27.8290
192.500000	69.389	-27.6032
195.000000	69.330	-27.3414
197.500000	69.277	-27.0667
200.000000	69.224	-26.8120
203.000000	69.161	-26.5205
206.000000	69.098	-26.2359
209.000000	69.033	-25.9487
212.000000	68.966	-25.6474
214.000000	68.924	-25.4327
218.000000	68.843	-24.9773
220.000000	68.805	-24.7539
224.000000	68.731	-24.4028
227.000000	68.679	-24.1489
230.000000	68.625	-23.8435
233.000000	68.564	-23.5175
236.000000	68.502	-23.2296
240.000000	68.431	-22.8407
243.000000	68.390	-22.5555
247.000000	68.339	-22.1440
250.000000	68.302	-21.7879
254.000000	68.242	-21.3588
258.000000	68.173	-20.9596
262.000000	68.110	-20.5839
265.000000	68.070	-20.3150
269.000000	68.023	-19.9666
272.000000	67.982	-19.6918
276.000000	67.927	-19.2940
280.000000	67.875	-18.9095
285.000000	67.813	-18.3973
290.000000	67.748	-17.8964
295.000000	67.696	-17.4787
300.000000	67.647	-16.9616
304.000000	67.602	-16.5508
307.000000	67.568	-16.2665
311.000000	67.525	-15.9062
315.000000	67.486	-15.5519
320.000000	67.439	-15.0854
325.000000	67.393	-14.6086
330.000000	67.348	-14.1433
335.000000	67.305	-13.7008
340.000000	67.261	-13.2596
345.000000	67.220	-12.8068
350.000000	67.186	-12.3365
355.000000	67.158	-11.8812
360.000000	67.128	-11.4436
365.000000	67.090	-10.9864
370.000000	67.048	-10.5362
375.000000	67.010	-10.0995
382.000000	66.962	-9.4850
387.000000	66.931	-9.0462
395.000000	66.881	-8.3609
400.000000	66.853	-7.9234
406.000000	66.822	-7.3981
412.000000	66.793	-6.8849
418.000000	66.767	-6.3723
425.000000	66.734	-5.7830
431.000000	66.704	-5.2496
437.000000	66.680	-4.6996
444.000000	66.658	-4.1171
450.000000	66.639	-3.6477
455.000000	66.622	-3.2524
462.000000	66.599	-2.6964
468.000000	66.581	-2.2154
475.000000	66.564	-1.6469
482.000000	66.546	-1.0946
487.000000	66.532	-0.7179
494.000000	66.513	-0.1991
500.000000	66.498	0.2412
508.000000	66.479	0.8381
515.000000	66.463	1.3680
522.000000	66.448	1.8984
530.000000	66.433	2.5032
538.000000	66.419	3.1071
545.000000	66.407	3.6375
552.000000	66.396	4.1654
560.000000	66.384	4.7690
570.000000	66.371	5.5238
580.000000	66.361	6.2603
590.000000	66.351	7.0031
600.000000	66.344	7.7572
608.000000	66.340	8.3612
615.000000	66.338	8.8810
622.000000	66.337	9.4005
630.000000	66.336	9.9960
640.000000	66.339	10.7323
650.000000	66.343	11.4666
660.000000	66.349	12.1975
670.000000	66.357	12.9216
680.000000	66.368	13.6635
690.000000	66.381	14.4015
700.000000	66.395	15.1310
710.000000	66.413	15.8522
720.000000	66.433	16.5629
730.000000	66.457	17.2699
740.000000	66.482	17.9754
750.000000	66.509	18.6683
762.000000	66.544	19.4852
775.000000	66.585	20.3567
788.000000	66.631	21.2044
800.000000	66.675	21.9677
812.000000	66.718	22.7042
825.000000	66.762	23.4715
838.000000	66.804	24.2301
850.000000	66.841	24.9391
862.000000	66.876	25.6770
875.000000	66.913	26.5250
885.000000	66.944	27.2100
900.000000	67.001	28.2834
912.000000	67.059	29.1667
925.000000	67.133	30.1155
938.000000	67.220	31.0276
950.000000	67.306	31.8185
962.000000	67.396	32.5594
975.000000	67.500	33.3188
988.000000	67.609	34.0210
1000.000000	67.709	34.6209
1015.000000	67.835	35.3356
1030.000000	67.963	36.0171
1044.000000	68.084	36.5943
1060.000000	68.223	37.1862
1075.000000	68.353	37.6974
1090.000000	68.482	38.1596
1106.000000	68.617	38.5996
1120.000000	68.734	38.9507
1138.000000	68.881	39.3664
1150.000000	68.977	39.6153
1172.000000	69.148	40.0136
1180.000000	69.209	40.1457
1206.000000	69.401	40.5431
1220.000000	69.501	40.7349
1241.000000	69.647	40.9927
1250.000000	69.708	41.0936
1265.000000	69.807	41.2542
1280.000000	69.904	41.4090
1315.000000	70.121	41.7373
1320.000000	70.151	41.7818
1340.000000	70.270	41.9551
1360.000000	70.386	42.1208
1380.000000	70.500	42.2820
1400.000000	70.612	42.4379
1430.000000	70.777	42.6664
1450.000000	70.885	42.8171
1475.000000	71.020	42.9936
1500.000000	71.153	43.1600
1525.000000	71.286	43.3241
1550.000000	71.418	43.4792
1575.000000	71.550	43.6180
1600.000000	71.683	43.7496
1625.000000	71.816	43.8689
1650.000000	71.949	43.9681
1675.000000	72.083	44.0509
1700.000000	72.217	44.1163
1725.000000	72.352	44.1606
1750.000000	72.487	44.1854
1775.000000	72.622	44.1920
1800.000000	72.757	44.1767
1825.000000	72.893	44.1357
1850.000000	73.028	44.0679
1875.000000	73.163	43.9742
1900.000000	73.298	43.8575
1925.000000	73.433	43.7177
1950.000000	73.567	43.5477
1975.000000	73.700	43.3484
2000.000000	73.833	43.1224
2030.000000	73.991	42.8124
2060.000000	74.147	42.4554
2090.000000	74.301	42.0476
2120.000000	74.453	41.5903
2140.000000	74.552	41.2549
2180.000000	74.744	40.5048
2200.000000	74.835	40.0935
2240.000000	75.008	39.2055
2270.000000	75.126	38.4873
2300.000000	75.234	37.7417
2330.000000	75.331	36.9820
2360.000000	75.419	36.2180
2400.000000	75.522	35.2101
2430.000000	75.589	34.4652
2470.000000	75.668	33.4915
2500.000000	75.720	32.7805
2540.000000	75.781	31.8597
2580.000000	75.833	30.9706
2620.000000	75.878	30.1169
2650.000000	75.906	29.5003
2690.000000	75.938	28.7096
2720.000000	75.959	28.1433
2760.000000	75.982	27.4250
2800.000000	76.001	26.7462
2850.000000	76.021	25.9536
2900.000000	76.038	25.2231
2950.000000	76.053	24.5526
3000.000000	76.069	23.9426
3040.000000	76.083	23.4934
3070.000000	76.094	23.1785
3110.000000	76.111	22.7832
3150.000000	76.131	22.4101
3200.000000	76.162	21.9716
3250.000000	76.198	21.5589
3300.000000	76.242	21.1586
3350.000000	76.294	20.7600
3400.000000	76.354	20.3573
3450.000000	76.423	19.9365
3500.000000	76.501	19.4829
3550.000000	76.588	18.9850
3600.000000	76.683	18.4269
3650.000000	76.785	17.7900
3700.000000	76.895	17.0618
3750.000000	77.010	16.2277
3820.000000	77.177	14.8440
3870.000000	77.295	13.6746
3950.000000	77.472	11.4388
4000.000000	77.566	9.7903
4060.000000	77.644	7.5394
4120.000000	77.666	5.0172
4180.000000	77.600	2.3512
4250.000000	77.384	-0.4651
4310.000000	77.108	-1.9496
4370.000000	76.886	-2.2537
4440.000000	76.883	-2.1788
4500.000000	77.046	-3.1549
4550.000000	77.167	-4.9715
4620.000000	77.196	-8.4274
4680.000000	77.077	-11.5924
4750.000000	76.806	-15.0371
4820.000000	76.436	-18.0113
4870.000000	76.130	-19.8119
4940.000000	75.665	-21.8810
5000.000000	75.245	-23.2558
5080.000000	74.672	-24.5577
5150.000000	74.170	-25.2459
5220.000000	73.676	-25.5594
5300.000000	73.129	-25.5133
5380.000000	72.606	-25.0889
5450.000000	72.170	-24.4378
5520.000000	71.757	-23.5527
5600.000000	71.315	-22.2957
5700.000000	70.809	-20.4161
5800.000000	70.355	-18.2445
5900.000000	69.954	-15.8385
6000.000000	69.607	-13.2410
6080.000000	69.369	-11.0413
6150.000000	69.189	-9.0390
6220.000000	69.037	-6.9777
6300.000000	68.897	-4.5635
6400.000000	68.774	-1.4787
6500.000000	68.711	1.6616
6600.000000	68.712	4.8327
6700.000000	68.780	8.0011
6800.000000	68.922	11.1478
6900.000000	69.144	14.2306
7000.000000	69.457	17.1877
7100.000000	69.875	19.9310
7200.000000	70.411	22.3196
7300.000000	71.074	24.1498
7400.000000	71.867	25.1490
7500.000000	72.781	24.9458
7620.000000	73.971	22.4420
7750.000000	75.185	16.1018
7880.000000	76.021	5.8685
8000.000000	76.238	-5.7805
8120.000000	75.858	-17.4025
8250.000000	74.895	-27.8663
8380.000000	73.586	-35.2273
8500.000000	72.254	-39.4276
8620.000000	70.919	-41.6134
8750.000000	69.536	-42.2391
8850.000000	68.539	-41.7716
9000.000000	67.167	-39.9055
9120.000000	66.176	-37.6439
9250.000000	65.205	-34.6156
9380.000000	64.334	-31.1283
9500.000000	63.615	-27.5924
9620.000000	62.971	-23.8132
9750.000000	62.351	-19.4999
9880.000000	61.809	-15.0121
10000.000000	61.374	-10.7378
10150.000000	60.915	-5.2331
10300.000000	60.550	0.4412
10440.000000	60.303	5.8782
10600.000000	60.154	12.1145
10750.000000	60.139	17.6862
10900.000000	60.193	22.8314
11060.000000	60.283	28.1186
11200.000000	60.408	32.7944
11380.000000	60.678	38.8632
11500.000000	60.942	42.8551
11720.000000	61.604	49.8312
11800.000000	61.905	52.2195
12060.000000	63.120	59.2213
12200.000000	63.941	62.3302
12410.000000	65.411	65.6791
12500.000000	66.130	66.4528
12650.000000	67.429	66.5171
12800.000000	68.797	64.5821
13150.000000	71.505	49.9254
13200.000000	71.750	46.7530
13400.000000	72.228	33.1084
13600.000000	71.994	20.8325
13800.000000	71.399	12.0616
14000.000000	70.854	6.3173
14300.000000	70.669	-0.8613
14500.000000	70.939	-8.2789
14750.000000	71.091	-23.8870
15000.000000	70.165	-44.1371
15250.000000	67.860	-60.4757
15500.000000	64.731	-68.1702
15750.000000	61.554	-68.9447
16000.000000	58.757	-65.7086
16250.000000	56.425	-60.2757
16500.000000	54.517	-53.6020
16750.000000	52.981	-46.2383
17000.000000	51.787	-38.5344
17250.000000	50.930	-30.7963
17500.000000	50.428	-23.3408
17750.000000	50.332	-16.6394
18000.000000	50.717	-11.6456
18250.000000	51.590	-10.2608
18500.000000	52.632	-15.5181
18750.000000	53.108	-29.3158
19000.000000	52.328	-47.3816
19250.000000	50.181	-60.9899
19500.000000	47.164	-66.2114
19750.000000	44.064	-65.4982
