* Measurement data measured by REW V5.20.13
* Source: USB-C to 3.5mm Headphone Jack Adapter, USB-C to 3.5mm Headphone Jack Adapter, 0, volume: 1.000
* Format: 256k Log Swept Sine, 1 sweep at -12.0 dBFS with no timing reference
* Dated: 2022. 11. 13 ¿ÀÈÄ 1:25:32
* REW Settings:
*  C-weighting compensation: Off
*  Target level: 75.0 dB
* Note: 
* Measurement: R
* Smoothing: 1/24 octave
* Frequency Step: 1/48 octave
* Start Frequency: 20.300 Hz
*
* Freq(Hz)	SPL(dB)	Phase(degrees)
20.299999	112.193	-172.5554
20.600000	112.176	-172.8719
20.900000	112.141	-173.3528
21.200001	112.111	-173.5921
21.400000	112.104	-173.6534
21.799999	112.125	-173.7366
22.000000	112.153	-173.8513
22.400000	112.224	-174.3506
22.700001	112.268	-174.9618
23.000000	112.289	-175.6990
23.299999	112.283	-176.4374
23.600000	112.260	-177.0845
24.000000	112.222	-177.7329
24.299999	112.207	-178.0917
24.700001	112.214	-178.5234
25.000000	112.233	-178.8963
25.400000	112.262	-179.4984
25.799999	112.279	179.8319
26.200001	112.283	179.1756
26.500000	112.279	178.7142
26.900000	112.266	178.1344
27.200001	112.249	177.7243
27.600000	112.216	177.2386
28.000000	112.176	176.8845
28.500000	112.144	176.6495
29.000000	112.157	176.4512
29.500000	112.205	175.9962
30.000000	112.238	175.2118
30.400000	112.231	174.5238
30.700001	112.212	174.0888
31.100000	112.188	173.6707
31.500000	112.186	173.3498
32.000000	112.214	172.8268
32.500000	112.231	172.0486
33.000000	112.199	171.2913
33.500000	112.142	170.9262
34.000000	112.129	170.9413
34.500000	112.186	170.8696
35.000000	112.260	170.3349
35.500000	112.276	169.4651
36.000000	112.219	168.7384
36.500000	112.142	168.4309
37.000000	112.103	168.3694
37.500000	112.107	168.2033
38.200001	112.114	167.5786
38.700001	112.098	167.0193
39.500000	112.061	166.1210
40.000000	112.034	165.5176
40.599998	111.988	164.8409
41.200001	111.947	164.3452
41.799999	111.938	163.9294
42.500000	111.954	163.3060
43.099998	111.959	162.6867
43.700001	111.955	162.1302
44.400002	111.952	161.5561
45.000000	111.949	161.0633
45.500000	111.942	160.6580
46.200001	111.929	160.0959
46.799999	111.915	159.5643
47.500000	111.881	158.9023
48.200001	111.831	158.3247
48.700001	111.800	157.9791
49.400002	111.769	157.5028
50.000000	111.748	157.0530
50.799999	111.717	156.4209
51.500000	111.686	155.8940
52.200001	111.653	155.4529
53.000000	111.629	155.0612
53.799999	111.626	154.6473
54.500000	111.624	154.1713
55.200001	111.607	153.6441
56.000000	111.574	153.0871
57.000000	111.530	152.3874
58.000000	111.456	151.7190
59.000000	111.391	151.3745
60.000000	111.385	150.8920
60.799999	111.367	150.2588
61.500000	111.335	149.7525
62.200001	111.307	149.3262
63.000000	111.283	148.8299
64.000000	111.250	148.1611
65.000000	111.200	147.5096
66.000000	111.137	147.0095
67.000000	111.088	146.6063
68.000000	111.050	146.1044
69.000000	111.004	145.4875
70.000000	110.946	144.8549
71.000000	110.894	144.2485
72.000000	110.857	143.6051
73.000000	110.828	142.8757
74.000000	110.787	142.0737
75.000000	110.713	141.4428
76.199997	110.640	141.1760
77.500000	110.638	140.9099
78.800003	110.626	140.1954
80.000000	110.557	139.5146
81.199997	110.478	139.0532
82.500000	110.415	138.6066
83.800003	110.371	138.1120
85.000000	110.343	137.5593
86.199997	110.304	136.8784
87.500000	110.235	136.2325
88.500000	110.184	135.8380
90.000000	110.116	135.3076
91.199997	110.081	134.8959
92.500000	110.049	134.3030
93.800003	109.995	133.6765
95.000000	109.934	133.2170
96.199997	109.880	132.8223
97.500000	109.824	132.3692
98.800003	109.762	131.9029
100.000000	109.704	131.5083
101.500000	109.641	131.0414
103.000000	109.587	130.5289
104.400002	109.532	130.0403
106.000000	109.467	129.5248
107.500000	109.406	129.0675
109.000000	109.348	128.6027
110.599998	109.288	128.0854
112.000000	109.237	127.6178
113.800003	109.171	127.0441
115.000000	109.128	126.6971
117.199997	109.043	126.0865
118.000000	109.006	125.8805
120.599998	108.900	125.3417
122.000000	108.860	124.9260
124.099998	108.788	124.2549
125.000000	108.758	123.9977
126.500000	108.708	123.5896
128.000000	108.655	123.2139
131.500000	108.549	122.4561
132.000000	108.536	122.3338
134.000000	108.479	121.8224
136.000000	108.415	121.3630
138.000000	108.365	120.9457
140.000000	108.323	120.4854
143.000000	108.262	119.9357
145.000000	108.226	119.6163
147.500000	108.156	119.0198
150.000000	108.052	118.4432
152.500000	107.969	117.9332
155.000000	107.903	117.3942
157.500000	107.842	116.8873
160.000000	107.783	116.4562
162.500000	107.733	116.1384
165.000000	107.687	115.8026
167.500000	107.654	115.4733
170.000000	107.639	114.9706
172.500000	107.610	114.3471
175.000000	107.572	113.7832
177.500000	107.544	113.2729
180.000000	107.519	112.6681
182.500000	107.465	112.0225
185.000000	107.398	111.4609
187.500000	107.332	110.9164
190.000000	107.266	110.3608
192.500000	107.204	109.8521
195.000000	107.151	109.3922
197.500000	107.098	108.9892
200.000000	107.043	108.6401
203.000000	106.982	108.1730
206.000000	106.919	107.6124
209.000000	106.857	107.1450
212.000000	106.810	106.7793
214.000000	106.781	106.5077
218.000000	106.712	105.9308
220.000000	106.680	105.6483
224.000000	106.616	105.0859
227.000000	106.567	104.6879
230.000000	106.526	104.2889
233.000000	106.487	103.9045
236.000000	106.447	103.5275
240.000000	106.393	103.0251
243.000000	106.355	102.7184
247.000000	106.306	102.3200
250.000000	106.269	101.9778
254.000000	106.223	101.4930
258.000000	106.175	101.0383
262.000000	106.128	100.6167
265.000000	106.095	100.3077
269.000000	106.054	99.9019
272.000000	106.027	99.5913
276.000000	105.994	99.1700
280.000000	105.964	98.7886
285.000000	105.929	98.3337
290.000000	105.895	97.8778
295.000000	105.864	97.4375
300.000000	105.833	96.9800
304.000000	105.810	96.6403
307.000000	105.795	96.3980
311.000000	105.778	96.0894
315.000000	105.764	95.7921
320.000000	105.748	95.4053
325.000000	105.730	95.0167
330.000000	105.714	94.6391
335.000000	105.701	94.2722
340.000000	105.692	93.9119
345.000000	105.685	93.5611
350.000000	105.676	93.2316
355.000000	105.662	92.8964
360.000000	105.652	92.5534
365.000000	105.649	92.2445
370.000000	105.645	91.9334
375.000000	105.641	91.6109
382.000000	105.638	91.1757
387.000000	105.637	90.8694
395.000000	105.638	90.3824
400.000000	105.642	90.0750
406.000000	105.647	89.7255
412.000000	105.651	89.3836
418.000000	105.655	89.0253
425.000000	105.669	88.5978
431.000000	105.683	88.2334
437.000000	105.696	87.8848
444.000000	105.711	87.4964
450.000000	105.727	87.1599
455.000000	105.743	86.8709
462.000000	105.763	86.4817
468.000000	105.777	86.1741
475.000000	105.791	85.8272
482.000000	105.811	85.4759
487.000000	105.831	85.2126
494.000000	105.860	84.8429
500.000000	105.883	84.5385
508.000000	105.909	84.1571
515.000000	105.933	83.8302
522.000000	105.959	83.5030
530.000000	105.986	83.1512
538.000000	106.016	82.8173
545.000000	106.042	82.5208
552.000000	106.068	82.2250
560.000000	106.100	81.8998
570.000000	106.143	81.5085
580.000000	106.186	81.1299
590.000000	106.226	80.7513
600.000000	106.269	80.3921
608.000000	106.303	80.1116
615.000000	106.331	79.8825
622.000000	106.359	79.6545
630.000000	106.393	79.3774
640.000000	106.436	79.0380
650.000000	106.480	78.7215
660.000000	106.524	78.4270
670.000000	106.566	78.1437
680.000000	106.609	77.8752
690.000000	106.653	77.6188
700.000000	106.696	77.3684
710.000000	106.739	77.1276
720.000000	106.783	76.9042
730.000000	106.827	76.6905
740.000000	106.871	76.4848
750.000000	106.919	76.2897
762.000000	106.976	76.0634
775.000000	107.038	75.8269
788.000000	107.100	75.6073
800.000000	107.161	75.4232
812.000000	107.224	75.2471
825.000000	107.295	75.0643
838.000000	107.369	74.8931
850.000000	107.440	74.7300
862.000000	107.512	74.5743
875.000000	107.593	74.4100
885.000000	107.656	74.2765
900.000000	107.755	74.0620
912.000000	107.836	73.8822
925.000000	107.928	73.6756
938.000000	108.021	73.4604
950.000000	108.110	73.2458
962.000000	108.200	73.0157
975.000000	108.298	72.7510
988.000000	108.396	72.4578
1000.000000	108.487	72.1627
1015.000000	108.600	71.7746
1030.000000	108.713	71.3581
1044.000000	108.817	70.9411
1060.000000	108.933	70.4324
1075.000000	109.038	69.9329
1090.000000	109.141	69.4034
1106.000000	109.254	68.8115
1120.000000	109.352	68.2758
1138.000000	109.473	67.5721
1150.000000	109.550	67.1031
1172.000000	109.683	66.2411
1180.000000	109.729	65.9252
1206.000000	109.871	64.8825
1220.000000	109.942	64.3259
1241.000000	110.042	63.5080
1250.000000	110.083	63.1641
1265.000000	110.147	62.5950
1280.000000	110.208	62.0321
1315.000000	110.340	60.7709
1320.000000	110.358	60.5985
1340.000000	110.423	59.9261
1360.000000	110.480	59.2730
1380.000000	110.535	58.6449
1400.000000	110.592	58.0470
1430.000000	110.677	57.2023
1450.000000	110.729	56.6724
1475.000000	110.791	56.0425
1500.000000	110.851	55.4570
1525.000000	110.910	54.9187
1550.000000	110.968	54.4310
1575.000000	111.026	53.9822
1600.000000	111.087	53.5739
1625.000000	111.149	53.1950
1650.000000	111.216	52.8479
1675.000000	111.288	52.5266
1700.000000	111.364	52.2086
1725.000000	111.443	51.8915
1750.000000	111.524	51.5756
1775.000000	111.607	51.2498
1800.000000	111.694	50.9066
1825.000000	111.784	50.5496
1850.000000	111.876	50.1809
1875.000000	111.971	49.7942
1900.000000	112.067	49.3842
1925.000000	112.163	48.9467
1950.000000	112.259	48.4802
1975.000000	112.355	47.9887
2000.000000	112.451	47.4728
2030.000000	112.565	46.8103
2060.000000	112.677	46.1055
2090.000000	112.785	45.3560
2120.000000	112.890	44.5589
2140.000000	112.957	43.9992
2180.000000	113.085	42.8233
2200.000000	113.143	42.2116
2240.000000	113.248	40.9402
2270.000000	113.316	39.9444
2300.000000	113.375	38.9201
2330.000000	113.424	37.8781
2360.000000	113.462	36.8222
2400.000000	113.495	35.4067
2430.000000	113.506	34.3549
2470.000000	113.504	32.9828
2500.000000	113.491	31.9859
2540.000000	113.459	30.7165
2580.000000	113.411	29.5265
2620.000000	113.352	28.4262
2650.000000	113.300	27.6610
2690.000000	113.224	26.7212
2720.000000	113.161	26.0801
2760.000000	113.072	25.3080
2800.000000	112.979	24.6385
2850.000000	112.860	23.9540
2900.000000	112.744	23.4359
2950.000000	112.634	23.0651
3000.000000	112.536	22.8192
3040.000000	112.467	22.6928
3070.000000	112.423	22.6270
3110.000000	112.372	22.5623
3150.000000	112.330	22.5072
3200.000000	112.286	22.4365
3250.000000	112.245	22.3550
3300.000000	112.203	22.2782
3350.000000	112.159	22.2424
3400.000000	112.116	22.2862
3450.000000	112.082	22.4290
3500.000000	112.062	22.6783
3550.000000	112.058	23.0222
3600.000000	112.074	23.4438
3650.000000	112.112	23.9126
3700.000000	112.174	24.3967
3750.000000	112.261	24.8673
3820.000000	112.427	25.4473
3870.000000	112.572	25.7595
3950.000000	112.847	25.9785
4000.000000	113.045	25.8908
4060.000000	113.304	25.5128
4120.000000	113.581	24.7908
4180.000000	113.865	23.6700
4250.000000	114.189	21.8110
4310.000000	114.442	19.7134
4370.000000	114.651	17.1310
4440.000000	114.818	13.5134
4500.000000	114.874	9.9529
4550.000000	114.846	6.7433
4620.000000	114.674	2.0741
4680.000000	114.396	-1.8722
4750.000000	113.923	-6.1154
4820.000000	113.313	-9.6855
4870.000000	112.811	-11.7098
4940.000000	112.044	-13.7344
5000.000000	111.354	-14.7100
5080.000000	110.424	-14.9628
5150.000000	109.628	-14.2818
5220.000000	108.867	-12.8572
5300.000000	108.059	-10.4349
5380.000000	107.336	-7.2747
5450.000000	106.781	-4.0268
5520.000000	106.299	-0.4125
5600.000000	105.849	4.1406
5700.000000	105.483	10.0665
5800.000000	105.237	15.5374
5900.000000	104.974	21.7789
6000.000000	104.993	29.3383
6080.000000	105.276	35.1118
6150.000000	105.658	39.6165
6220.000000	106.139	43.5656
6300.000000	106.790	47.3298
6400.000000	107.721	50.7479
6500.000000	108.731	52.5510
6600.000000	109.748	52.5619
6700.000000	110.688	50.7354
6800.000000	111.470	47.3122
6900.000000	112.043	42.8074
7000.000000	112.389	37.9084
7100.000000	112.527	33.2834
7200.000000	112.519	29.3518
7300.000000	112.439	26.2322
7400.000000	112.349	23.8198
7500.000000	112.289	21.8730
7620.000000	112.293	19.8080
7750.000000	112.392	17.5134
7880.000000	112.503	14.7152
8000.000000	112.586	11.3789
8120.000000	112.608	7.2032
8250.000000	112.486	1.9583
8380.000000	112.165	-3.4178
8500.000000	111.701	-7.9103
8620.000000	111.122	-11.5844
8750.000000	110.426	-14.4874
8850.000000	109.891	-15.9968
9000.000000	109.157	-17.3870
9120.000000	108.655	-18.0681
9250.000000	108.185	-18.6252
9380.000000	107.772	-18.9595
9500.000000	107.469	-19.0365
9620.000000	107.269	-19.1578
9750.000000	107.166	-19.6355
9880.000000	107.167	-20.7638
10000.000000	107.235	-22.7310
10150.000000	107.321	-26.9818
10300.000000	107.226	-33.4939
10440.000000	106.774	-40.9384
10600.000000	105.694	-48.8207
10750.000000	104.213	-53.2812
10900.000000	102.536	-53.9639
11060.000000	100.851	-51.2107
11200.000000	99.643	-46.9840
11380.000000	98.529	-40.5350
11500.000000	98.036	-36.1994
11720.000000	97.522	-29.0641
11800.000000	97.430	-26.8369
12060.000000	97.373	-21.1761
12200.000000	97.442	-19.2598
12410.000000	97.592	-18.0374
12500.000000	97.661	-18.1519
12650.000000	97.764	-19.2196
12800.000000	97.832	-21.3486
13150.000000	97.711	-29.9295
13200.000000	97.650	-31.4911
13400.000000	97.285	-38.2760
13600.000000	96.751	-45.5488
13800.000000	96.096	-52.8771
14000.000000	95.396	-60.0172
14300.000000	94.464	-70.3580
14500.000000	94.058	-77.3365
14750.000000	93.894	-86.7379
15000.000000	94.159	-97.5498
15250.000000	94.822	-110.3030
15500.000000	95.870	-125.2606
15750.000000	97.171	-143.0614
16000.000000	98.478	-163.9972
16250.000000	99.666	171.9174
16500.000000	100.554	144.0558
16750.000000	100.873	112.8041
17000.000000	100.459	80.0374
17250.000000	99.384	48.2681
17500.000000	97.961	18.0812
17750.000000	96.432	-11.8834
18000.000000	94.861	-43.2473
18250.000000	93.238	-77.5112
18500.000000	91.521	-116.2819
18750.000000	89.615	-161.3488
19000.000000	87.358	145.6831
19250.000000	84.604	83.1665
19500.000000	81.255	10.0500
19750.000000	77.356	-66.1495
20000.000000	74.079	-114.4490
