* Measurement data measured by REW V5.20.7
* Source: 마이크(Realtek High Definition Audi, MICROPHONE (마스), L, volume: 0.050
* Format: 128k Log Swept Sine, 1 sweep at -12.0 dBFS with no timing reference
* Dated: May 5, 2023 5:13:09 PM
* REW Settings:
*  C-weighting compensation: Off
*  Target level: 75.0 dB
* Note: ; 
* Measurement: Rhapsodio Thousand Sound L
* Smoothing: 1/48 octave
* Frequency Step: 1/96 octave
* Start Frequency: 20.145 Hz
*
* Freq(Hz)	SPL(dB)	Phase(degrees)
20.144928	90.107	42.3020
20.290907	90.116	42.0849
20.437943	90.126	41.7823
20.586044	90.134	41.4955
20.735220	90.140	41.2064
20.885475	90.145	40.9151
21.036821	90.148	40.6255
21.189262	90.150	40.3340
21.342808	90.153	40.0394
21.497467	90.156	39.7418
21.653246	90.159	39.4389
21.810154	90.161	39.1308
21.968201	90.162	38.8164
22.127390	90.163	38.4948
22.287735	90.163	38.1661
22.449242	90.163	37.8298
22.611917	90.162	37.4860
22.775772	90.161	37.1359
22.940815	90.160	36.7790
23.107054	90.158	36.4181
23.274498	90.156	36.0533
23.443153	90.154	35.6870
23.613033	90.151	35.3208
23.784142	90.150	34.9554
23.956491	90.151	34.5928
24.130091	90.153	34.2324
24.304947	90.156	33.8743
24.481071	90.161	33.5179
24.658470	90.168	33.1608
24.837156	90.175	32.8030
25.017136	90.184	32.4416
25.198421	90.194	32.0770
25.381020	90.204	31.7090
25.564941	90.214	31.3383
25.750195	90.223	30.9687
25.936790	90.233	30.6009
26.124741	90.241	30.2408
26.314051	90.249	29.8885
26.504732	90.257	29.5482
26.696796	90.265	29.2188
26.890253	90.271	28.9000
27.085112	90.278	28.5897
27.281382	90.285	28.2841
27.479073	90.293	27.9814
27.678198	90.301	27.6782
27.878765	90.309	27.3750
28.080786	90.317	27.0711
28.284271	90.324	26.7703
28.489231	90.331	26.4731
28.695675	90.336	26.1836
28.903616	90.342	25.9011
29.113064	90.347	25.6256
29.324028	90.353	25.3535
29.536524	90.360	25.0818
29.750557	90.368	24.8054
29.966141	90.375	24.5225
30.183289	90.382	24.2322
30.402010	90.387	23.9379
30.622314	90.391	23.6438
30.844217	90.392	23.3583
31.067726	90.391	23.0854
31.292856	90.389	22.8318
31.519617	90.388	22.5954
31.748020	90.388	22.3759
31.978081	90.390	22.1626
32.209808	90.395	21.9508
32.443211	90.402	21.7293
32.678310	90.409	21.4946
32.915108	90.416	21.2443
33.153625	90.421	20.9820
33.393871	90.424	20.7147
33.635857	90.426	20.4483
33.879597	90.426	20.1932
34.125103	90.425	19.9519
34.372387	90.423	19.7269
34.621464	90.422	19.5141
34.872345	90.423	19.3072
35.125042	90.424	19.1004
35.379574	90.427	18.8844
35.635948	90.430	18.6568
35.894180	90.433	18.4165
36.154285	90.433	18.1660
36.416275	90.432	17.9124
36.680161	90.429	17.6603
36.945961	90.424	17.4147
37.213688	90.420	17.1772
37.483353	90.417	16.9438
37.754974	90.415	16.7103
38.028561	90.413	16.4700
38.304131	90.412	16.2185
38.581699	90.410	15.9573
38.861279	90.406	15.6903
39.142883	90.402	15.4246
39.426529	90.396	15.1685
39.712231	90.392	14.9239
40.000000	90.389	14.6886
40.289856	90.388	14.4562
40.581814	90.390	14.2172
40.875885	90.392	13.9653
41.172089	90.393	13.7020
41.470440	90.393	13.4336
41.770950	90.389	13.1704
42.073643	90.383	12.9234
42.378525	90.377	12.6980
42.685616	90.371	12.4911
42.994934	90.367	12.2952
43.306492	90.364	12.1011
43.620308	90.362	11.9016
43.936401	90.360	11.6938
44.254780	90.357	11.4798
44.575470	90.352	11.2637
44.898483	90.346	11.0482
45.223835	90.339	10.8340
45.551544	90.331	10.6207
45.881630	90.323	10.4077
46.214108	90.314	10.1949
46.548996	90.306	9.9822
46.886307	90.298	9.7683
47.226067	90.291	9.5502
47.568283	90.284	9.3251
47.912983	90.277	9.0928
48.260181	90.270	8.8580
48.609894	90.262	8.6280
48.962143	90.253	8.4094
49.316940	90.246	8.2044
49.674313	90.239	8.0090
50.034271	90.235	7.8163
50.396843	90.233	7.6194
50.762039	90.231	7.4144
51.129883	90.230	7.2011
51.500389	90.227	6.9811
51.873581	90.222	6.7576
52.249481	90.216	6.5351
52.628101	90.207	6.3197
53.009464	90.198	6.1159
53.393593	90.190	5.9235
53.780506	90.182	5.7350
54.170223	90.174	5.5408
54.562763	90.167	5.3357
54.958145	90.157	5.1243
55.356396	90.146	4.9168
55.757530	90.135	4.7197
56.161572	90.126	4.5288
56.568542	90.117	4.3336
56.978462	90.109	4.1289
57.391350	90.098	3.9232
57.807232	90.086	3.7322
58.226128	90.074	3.5629
58.648056	90.064	3.4052
59.073048	90.058	3.2396
59.501114	90.051	3.0553
59.932281	90.042	2.8603
60.366577	90.030	2.6729
60.804020	90.017	2.5025
61.244629	90.005	2.3426
61.688435	89.994	2.1799
62.135452	89.983	2.0078
62.585712	89.971	1.8292
63.039234	89.960	1.6460
63.496040	89.948	1.4542
63.956161	89.936	1.2514
64.419617	89.921	1.0477
64.886421	89.905	0.8595
65.356621	89.890	0.6920
65.830215	89.880	0.5295
66.307251	89.872	0.3495
66.787743	89.862	0.1484
67.271713	89.849	-0.0531
67.759193	89.832	-0.2295
68.250206	89.817	-0.3761
68.744774	89.805	-0.5100
69.242928	89.796	-0.6514
69.744690	89.786	-0.8064
70.250084	89.776	-0.9722
70.759148	89.765	-1.1478
71.271896	89.752	-1.3331
71.788361	89.735	-1.5181
72.308571	89.716	-1.6841
72.832550	89.698	-1.8213
73.360321	89.684	-1.9451
73.891922	89.675	-2.0838
74.427376	89.667	-2.2532
74.966705	89.655	-2.4413
75.509949	89.639	-2.6221
76.057121	89.621	-2.7809
76.608261	89.603	-2.9181
77.163399	89.586	-3.0404
77.722557	89.571	-3.1564
78.285767	89.558	-3.2776
78.853058	89.546	-3.4167
79.424461	89.532	-3.5758
80.000000	89.515	-3.7419
80.579712	89.496	-3.8971
81.163628	89.476	-4.0312
81.751770	89.458	-4.1499
82.344177	89.444	-4.2704
82.940880	89.431	-4.4098
83.541901	89.417	-4.5668
84.147285	89.400	-4.7217
84.757050	89.382	-4.8584
85.371231	89.364	-4.9840
85.989868	89.347	-5.1138
86.612984	89.329	-5.2465
87.240616	89.308	-5.3675
87.872803	89.288	-5.4736
88.509560	89.270	-5.5790
89.150940	89.254	-5.6956
89.796967	89.236	-5.8235
90.447670	89.218	-5.9586
91.103088	89.198	-6.0966
91.763260	89.177	-6.2283
92.428215	89.154	-6.3422
93.097992	89.133	-6.4371
93.772614	89.115	-6.5268
94.452133	89.099	-6.6276
95.136566	89.082	-6.7416
95.825966	89.064	-6.8585
96.520363	89.043	-6.9702
97.219788	89.021	-7.0746
97.924286	88.999	-7.1675
98.633881	88.976	-7.2445
99.348625	88.955	-7.3130
100.068542	88.936	-7.3898
100.793686	88.917	-7.4796
101.524078	88.895	-7.5706
102.259766	88.874	-7.6537
103.000778	88.853	-7.7328
103.747162	88.832	-7.8125
104.498962	88.811	-7.8922
105.256203	88.789	-7.9700
106.018929	88.766	-8.0387
106.787186	88.743	-8.0880
107.561012	88.720	-8.1188
108.340446	88.701	-8.1459
109.125526	88.683	-8.1822
109.916290	88.665	-8.2288
110.712791	88.648	-8.2847
111.515060	88.630	-8.3546
112.323143	88.610	-8.4332
113.137085	88.588	-8.5007
113.956924	88.567	-8.5497
114.782700	88.548	-8.5909
115.614464	88.531	-8.6334
116.452255	88.515	-8.6851
117.296112	88.497	-8.7528
118.146095	88.475	-8.8280
119.002228	88.448	-8.8902
119.864563	88.418	-8.9234
120.733154	88.388	-8.9267
121.608040	88.361	-8.9104
122.489258	88.336	-8.8843
123.376869	88.315	-8.8557
124.270905	88.296	-8.8305
125.171425	88.279	-8.8211
126.078468	88.262	-8.8408
126.992081	88.238	-8.8756
127.912323	88.208	-8.8873
128.839233	88.173	-8.8435
129.772842	88.140	-8.7354
130.713242	88.115	-8.5813
131.660431	88.098	-8.4170
132.614502	88.088	-8.2792
133.575485	88.077	-8.1779
134.543427	88.059	-8.0703
135.518387	88.039	-7.8982
136.500412	88.025	-7.6449
137.489548	88.026	-7.3447
138.485855	88.045	-7.0598
139.489380	88.078	-6.8466
140.500168	88.118	-6.7218
141.518295	88.159	-6.6731
142.543793	88.200	-6.6893
143.576721	88.239	-6.7637
144.617142	88.276	-6.8918
145.665100	88.308	-7.0726
146.720642	88.333	-7.3003
147.783844	88.350	-7.5583
148.854752	88.360	-7.8273
149.933411	88.363	-8.0986
151.019897	88.361	-8.3700
152.114243	88.352	-8.6359
153.216522	88.339	-8.8852
154.326797	88.322	-9.1186
155.445114	88.302	-9.3424
156.571533	88.278	-9.5474
157.706116	88.252	-9.7241
158.848923	88.225	-9.8744
160.000000	88.198	-10.0081
161.159424	88.171	-10.1317
162.327255	88.144	-10.2435
163.503540	88.117	-10.3459
164.688354	88.090	-10.4410
165.881760	88.063	-10.5273
167.083801	88.035	-10.6061
168.294571	88.007	-10.6754
169.514099	87.980	-10.7315
170.742462	87.955	-10.7756
171.979736	87.933	-10.8179
173.225967	87.912	-10.8639
174.481232	87.891	-10.9097
175.745605	87.870	-10.9554
177.019119	87.848	-11.0000
178.301880	87.825	-11.0417
179.593933	87.802	-11.0810
180.895340	87.779	-11.1138
182.206177	87.755	-11.1347
183.526520	87.733	-11.1456
184.856430	87.710	-11.1454
186.195984	87.688	-11.1320
187.545227	87.667	-11.1108
188.904266	87.648	-11.0868
190.273132	87.628	-11.0623
191.651932	87.609	-11.0369
193.040726	87.590	-11.0111
194.439575	87.571	-10.9824
195.848572	87.550	-10.9470
197.267761	87.530	-10.9048
198.697250	87.509	-10.8533
200.137085	87.490	-10.7946
201.587372	87.473	-10.7301
203.048157	87.458	-10.6624
204.519531	87.446	-10.5967
206.001556	87.433	-10.5356
207.494324	87.421	-10.4775
208.997925	87.410	-10.4243
210.512405	87.401	-10.3781
212.037857	87.393	-10.3402
213.574371	87.386	-10.3127
215.122025	87.380	-10.2924
216.680893	87.372	-10.2793
218.251053	87.364	-10.2773
219.832581	87.354	-10.2833
221.425583	87.344	-10.2912
223.030121	87.333	-10.2990
224.646286	87.322	-10.3101
226.274170	87.311	-10.3251
227.913849	87.297	-10.3396
229.565399	87.283	-10.3515
231.228928	87.267	-10.3629
232.904510	87.250	-10.3731
234.592224	87.233	-10.3788
236.292191	87.217	-10.3812
238.004456	87.200	-10.3814
239.729126	87.185	-10.3792
241.466309	87.169	-10.3737
243.216080	87.154	-10.3624
244.978516	87.139	-10.3478
246.753738	87.124	-10.3332
248.541809	87.108	-10.3171
250.342850	87.093	-10.2971
252.156937	87.078	-10.2759
253.984161	87.063	-10.2556
255.824646	87.049	-10.2342
257.678467	87.034	-10.2091
259.545685	87.020	-10.1799
261.426483	87.005	-10.1465
263.320862	86.990	-10.1112
265.229004	86.975	-10.0735
267.150970	86.961	-10.0344
269.086853	86.947	-9.9959
271.036774	86.932	-9.9569
273.000824	86.918	-9.9165
274.979095	86.905	-9.8753
276.971710	86.892	-9.8327
278.978760	86.878	-9.7853
281.000336	86.864	-9.7330
283.036591	86.849	-9.6787
285.087585	86.835	-9.6230
287.153442	86.820	-9.5636
289.234283	86.807	-9.5006
291.330200	86.793	-9.4329
293.441284	86.779	-9.3603
295.567688	86.765	-9.2830
297.709503	86.751	-9.1999
299.866821	86.737	-9.1121
302.039795	86.723	-9.0187
304.228485	86.707	-8.9139
306.433044	86.692	-8.7953
308.653595	86.679	-8.6612
310.890228	86.668	-8.5085
313.143066	86.660	-8.3368
315.412231	86.655	-8.1499
317.697845	86.654	-7.9529
320.000000	86.659	-7.7538
322.318848	86.670	-7.5663
324.654510	86.688	-7.4093
327.007080	86.710	-7.3001
329.376709	86.734	-7.2422
331.763519	86.758	-7.2306
334.167603	86.778	-7.2608
336.589142	86.792	-7.3236
339.028198	86.800	-7.4038
341.484924	86.802	-7.4866
343.959473	86.801	-7.5593
346.451935	86.795	-7.6163
348.962463	86.787	-7.6592
351.491211	86.778	-7.6908
354.038239	86.768	-7.7149
356.603760	86.758	-7.7310
359.187866	86.748	-7.7326
361.790680	86.738	-7.7195
364.412354	86.728	-7.7021
367.053040	86.718	-7.6851
369.712860	86.708	-7.6640
372.391968	86.698	-7.6386
375.090454	86.689	-7.6110
377.808533	86.680	-7.5802
380.546265	86.673	-7.5458
383.303864	86.665	-7.5068
386.081451	86.658	-7.4662
388.879150	86.650	-7.4234
391.697144	86.643	-7.3793
394.535522	86.636	-7.3375
397.394501	86.630	-7.2975
400.274170	86.625	-7.2524
403.174744	86.620	-7.1992
406.096313	86.615	-7.1444
409.039062	86.610	-7.0944
412.003113	86.604	-7.0471
414.988647	86.599	-6.9955
417.995850	86.594	-6.9383
421.024811	86.589	-6.8802
424.075714	86.584	-6.8261
427.148743	86.580	-6.7757
430.244049	86.578	-6.7237
433.361786	86.575	-6.6709
436.502106	86.572	-6.6184
439.665161	86.569	-6.5642
442.851166	86.567	-6.5131
446.060242	86.565	-6.4645
449.292572	86.563	-6.4100
452.548340	86.561	-6.3519
455.827698	86.559	-6.2961
459.130798	86.558	-6.2405
462.457855	86.558	-6.1859
465.809021	86.557	-6.1312
469.184448	86.556	-6.0722
472.584381	86.555	-6.0125
476.008911	86.554	-5.9564
479.458252	86.554	-5.9021
482.932617	86.555	-5.8482
486.432159	86.555	-5.7955
489.957031	86.556	-5.7407
493.507477	86.556	-5.6824
497.083618	86.558	-5.6259
500.685699	86.560	-5.5724
504.313873	86.561	-5.5190
507.968323	86.563	-5.4662
511.649292	86.565	-5.4157
515.356934	86.567	-5.3640
519.091370	86.570	-5.3067
522.852966	86.572	-5.2480
526.641724	86.574	-5.1920
530.458008	86.576	-5.1335
534.301941	86.578	-5.0744
538.173706	86.581	-5.0185
542.073547	86.584	-4.9638
546.001648	86.586	-4.9112
549.958191	86.586	-4.8581
553.943420	86.588	-4.8012
557.957520	86.589	-4.7439
562.000671	86.591	-4.6884
566.073181	86.594	-4.6340
570.175171	86.597	-4.5792
574.306885	86.599	-4.5229
578.468567	86.602	-4.4681
582.660400	86.605	-4.4155
586.882568	86.608	-4.3611
591.135376	86.610	-4.3039
595.419006	86.614	-4.2463
599.733643	86.618	-4.1887
604.079590	86.622	-4.1313
608.456970	86.627	-4.0743
612.866089	86.632	-4.0165
617.307190	86.637	-3.9584
621.780457	86.642	-3.9016
626.286133	86.647	-3.8433
630.824463	86.653	-3.7811
635.395691	86.659	-3.7174
640.000000	86.665	-3.6585
644.637695	86.672	-3.6039
649.309021	86.679	-3.5495
654.014160	86.686	-3.4937
658.753418	86.692	-3.4342
663.527039	86.700	-3.3717
668.335205	86.708	-3.3089
673.178284	86.716	-3.2469
678.056396	86.725	-3.1868
682.969849	86.733	-3.1304
687.918945	86.742	-3.0746
692.903870	86.751	-3.0146
697.924927	86.761	-2.9505
702.982422	86.771	-2.8895
708.076477	86.781	-2.8300
713.207520	86.790	-2.7695
718.375732	86.800	-2.7098
723.581360	86.811	-2.6471
728.824707	86.822	-2.5816
734.106079	86.833	-2.5177
739.425720	86.846	-2.4536
744.783936	86.858	-2.3860
750.180908	86.871	-2.3177
755.617065	86.884	-2.2537
761.092529	86.897	-2.1888
766.607727	86.910	-2.1204
772.162903	86.923	-2.0517
777.758301	86.937	-1.9845
783.394287	86.950	-1.9156
789.071045	86.964	-1.8442
794.789001	86.978	-1.7712
800.548340	86.994	-1.6963
806.349487	87.010	-1.6246
812.192627	87.026	-1.5558
818.078125	87.043	-1.4864
824.006226	87.061	-1.4135
829.977295	87.079	-1.3390
835.991699	87.098	-1.2670
842.049622	87.117	-1.1972
848.151428	87.136	-1.1267
854.297485	87.156	-1.0523
860.488098	87.176	-0.9794
866.723572	87.196	-0.9090
873.004211	87.216	-0.8370
879.330322	87.238	-0.7644
885.702332	87.261	-0.6928
892.120483	87.284	-0.6262
898.585144	87.308	-0.5655
905.096680	87.332	-0.5037
911.655396	87.357	-0.4418
918.261597	87.383	-0.3824
924.915710	87.410	-0.3246
931.618042	87.437	-0.2698
938.368896	87.466	-0.2159
945.168762	87.496	-0.1680
952.017822	87.526	-0.1268
958.916504	87.557	-0.0862
965.865234	87.589	-0.0436
972.864319	87.620	-0.0027
979.914062	87.653	0.0296
987.014954	87.686	0.0569
994.167236	87.720	0.0827
1001.371399	87.754	0.1054
1008.627747	87.789	0.1233
1015.936646	87.824	0.1313
1023.298584	87.860	0.1314
1030.713867	87.897	0.1283
1038.182739	87.935	0.1233
1045.705933	87.973	0.1146
1053.283447	88.012	0.1009
1060.916016	88.051	0.0809
1068.603882	88.089	0.0544
1076.347412	88.123	0.0210
1084.147095	88.155	-0.0150
1092.003296	88.188	-0.0521
1099.916382	88.224	-0.0940
1107.886841	88.262	-0.1447
1115.915039	88.299	-0.2014
1124.001343	88.337	-0.2649
1132.146362	88.375	-0.3350
1140.350342	88.412	-0.4047
1148.613770	88.450	-0.4771
1156.937134	88.489	-0.5557
1165.320801	88.528	-0.6401
1173.765137	88.567	-0.7291
1182.270752	88.606	-0.8237
1190.838013	88.646	-0.9227
1199.467285	88.687	-1.0251
1208.159180	88.730	-1.1309
1216.913940	88.778	-1.2429
1225.732178	88.829	-1.3615
1234.614380	88.881	-1.4826
1243.560913	88.934	-1.6051
1252.572266	88.989	-1.7323
1261.648926	89.043	-1.8642
1270.791382	89.098	-2.0002
1280.000000	89.153	-2.1396
1289.275391	89.209	-2.2838
1298.618042	89.265	-2.4322
1308.028320	89.321	-2.5834
1317.506836	89.378	-2.7402
1327.054077	89.435	-2.9032
1336.670410	89.493	-3.0729
1346.356567	89.552	-3.2488
1356.112793	89.613	-3.4320
1365.939697	89.677	-3.6241
1375.837891	89.743	-3.8242
1385.807739	89.810	-4.0319
1395.849854	89.877	-4.2481
1405.964844	89.946	-4.4713
1416.152954	90.014	-4.7023
1426.415039	90.084	-4.9444
1436.751465	90.154	-5.1962
1447.162720	90.224	-5.4597
1457.649414	90.295	-5.7349
1468.212158	90.366	-6.0228
1478.851440	90.437	-6.3262
1489.567871	90.508	-6.6438
1500.361816	90.579	-6.9756
1511.234131	90.649	-7.3226
1522.185059	90.717	-7.6865
1533.215454	90.781	-8.0705
1544.325806	90.841	-8.4761
1555.516602	90.900	-8.9060
1566.788574	90.959	-9.3542
1578.142090	91.015	-9.8176
1589.578003	91.070	-10.2998
1601.096680	91.123	-10.8037
1612.698975	91.174	-11.3284
1624.385254	91.224	-11.8718
1636.156250	91.271	-12.4364
1648.012451	91.315	-13.0207
1659.954590	91.357	-13.6222
1671.983398	91.396	-14.2401
1684.099243	91.432	-14.8742
1696.302856	91.465	-15.5257
1708.594971	91.495	-16.1925
1720.976196	91.523	-16.8693
1733.447144	91.548	-17.5575
1746.008423	91.570	-18.2561
1758.660645	91.588	-18.9615
1771.404663	91.603	-19.6731
1784.240967	91.613	-20.3892
1797.170288	91.620	-21.1081
1810.193359	91.624	-21.8291
1823.310791	91.623	-22.5472
1836.523193	91.619	-23.2604
1849.831421	91.611	-23.9680
1863.236084	91.599	-24.6718
1876.737793	91.583	-25.3714
1890.337524	91.563	-26.0599
1904.035645	91.540	-26.7355
1917.833008	91.513	-27.3980
1931.730469	91.482	-28.0471
1945.728638	91.449	-28.6811
1959.828125	91.412	-29.3007
1974.029907	91.372	-29.9050
1988.334473	91.330	-30.4927
2002.742798	91.284	-31.0618
2017.255493	91.236	-31.6087
2031.873291	91.186	-32.1343
2046.597168	91.133	-32.6401
2061.427734	91.078	-33.1239
2076.365479	91.021	-33.5844
2091.411865	90.962	-34.0190
2106.566895	90.902	-34.4288
2121.832031	90.840	-34.8134
2137.207764	90.776	-35.1741
2152.694824	90.711	-35.5104
2168.294189	90.644	-35.8212
2184.006592	90.577	-36.1063
2199.832764	90.508	-36.3649
2215.773682	90.439	-36.5974
2231.830078	90.369	-36.8026
2248.002686	90.299	-36.9787
2264.292725	90.229	-37.1307
2280.700684	90.159	-37.2554
2297.227539	90.088	-37.3534
2313.874268	90.017	-37.4245
2330.641602	89.947	-37.4667
2347.530273	89.877	-37.4784
2364.541504	89.807	-37.4574
2381.676025	89.738	-37.4051
2398.934570	89.670	-37.3259
2416.318359	89.603	-37.2184
2433.827881	89.538	-37.0833
2451.464355	89.476	-36.9276
2469.228760	89.417	-36.7621
2487.121826	89.360	-36.5874
2505.144531	89.304	-36.3993
2523.297852	89.251	-36.2012
2541.582764	89.198	-35.9983
2560.000000	89.147	-35.7940
2578.550781	89.097	-35.5932
2597.236084	89.047	-35.3960
2616.056641	88.997	-35.2004
2635.013672	88.946	-35.0072
2654.108154	88.895	-34.8141
2673.340820	88.843	-34.6174
2692.713135	88.791	-34.4095
2712.225586	88.737	-34.1879
2731.879395	88.681	-33.9460
2751.675781	88.623	-33.6783
2771.615479	88.564	-33.3750
2791.699707	88.505	-33.0259
2811.929688	88.446	-32.6256
2832.305908	88.387	-32.1729
2852.830078	88.328	-31.6660
2873.502930	88.270	-31.0988
2894.325439	88.212	-30.4694
2915.298828	88.157	-29.7754
2936.424316	88.104	-29.0083
2957.702881	88.053	-28.1621
2979.135742	88.005	-27.2273
3000.723633	87.962	-26.1981
3022.468262	87.926	-25.0664
3044.370117	87.901	-23.8265
3066.430908	87.890	-22.4803
3088.651611	87.897	-21.0427
3111.033203	87.925	-19.5292
3133.577148	87.976	-17.9627
3156.284180	88.054	-16.3757
3179.156006	88.157	-14.7930
3202.193359	88.285	-13.2403
3225.397949	88.437	-11.7521
3248.770508	88.611	-10.3494
3272.312500	88.807	-9.0463
3296.024902	89.022	-7.8546
3319.909180	89.254	-6.7879
3343.966797	89.503	-5.8689
3368.198486	89.765	-5.1174
3392.605713	90.037	-4.5548
3417.189941	90.315	-4.1995
3441.952393	90.593	-4.0590
3466.894287	90.866	-4.1366
3492.016846	91.130	-4.4293
3517.321289	91.380	-4.9204
3542.809326	91.612	-5.5866
3568.481934	91.824	-6.4063
3594.340576	92.013	-7.3470
3620.386719	92.178	-8.3680
3646.621582	92.320	-9.4291
3673.046387	92.442	-10.4977
3699.662842	92.545	-11.5498
3726.472168	92.631	-12.5771
3753.475586	92.704	-13.5781
3780.675049	92.764	-14.5615
3808.071289	92.815	-15.5405
3835.666016	92.859	-16.5200
3863.460938	92.901	-17.5037
3891.457275	92.939	-18.4983
3919.656250	92.973	-19.5242
3948.059814	93.001	-20.6022
3976.668945	93.023	-21.7423
4005.485596	93.038	-22.9566
4034.510986	93.041	-24.2506
4063.746582	93.031	-25.6151
4093.194336	93.007	-27.0483
4122.855469	92.967	-28.5556
4152.730957	92.906	-30.1398
4182.823730	92.817	-31.7849
4213.133789	92.695	-33.4461
4243.664062	92.535	-35.0663
4274.415527	92.336	-36.5858
4305.389648	92.100	-37.9613
4336.588379	91.830	-39.1725
4368.013184	91.533	-40.2010
4399.665527	91.217	-41.0214
4431.547363	90.890	-41.6073
4463.660156	90.558	-41.9359
4496.005371	90.226	-42.0018
4528.585449	89.897	-41.8098
4561.401367	89.573	-41.3640
4594.455078	89.256	-40.6757
4627.748535	88.952	-39.7548
4661.283203	88.661	-38.6054
4695.060547	88.386	-37.2371
4729.083008	88.133	-35.6647
4763.352051	87.903	-33.8938
4797.869141	87.701	-31.9327
4832.636719	87.531	-29.8064
4867.655762	87.395	-27.5352
4902.928711	87.300	-25.1474
4938.457520	87.253	-22.6798
4974.243652	87.258	-20.1747
5010.289062	87.323	-17.6976
5046.595703	87.452	-15.3355
5083.165527	87.650	-13.2009
5120.000000	87.913	-11.4348
5157.101562	88.234	-10.2022
5194.472168	88.591	-9.6748
5232.113281	88.950	-9.9869
5270.027344	89.269	-11.2061
5308.216309	89.500	-13.2659
5346.681641	89.602	-15.9450
5385.426270	89.553	-18.8941
5424.451172	89.352	-21.7229
5463.758789	89.015	-24.1042
5503.351562	88.577	-25.8263
5543.230957	88.074	-26.8214
5583.399414	87.532	-27.1346
5623.859375	86.963	-26.7894
5664.611816	86.388	-25.7418
5705.660156	85.846	-24.1328
5747.005859	85.350	-22.2643
5788.650879	84.875	-20.2828
5830.597656	84.401	-18.1162
5872.848633	83.932	-15.6539
5915.405762	83.487	-12.8973
5958.271484	83.087	-10.0082
6001.447266	82.721	-7.2372
6044.936523	82.336	-4.6846
6088.740234	81.878	-2.1039
6132.861816	81.353	0.7963
6177.303223	80.751	3.6175
6222.066406	79.855	7.0992
6267.154297	78.590	14.1360
6312.568359	77.260	27.2158
6358.312012	76.757	47.0332
6404.386719	78.346	69.6564
6450.795898	81.498	87.0095
6497.541016	84.763	93.7824
6544.625000	87.428	90.1759
6592.049805	89.185	79.0953
6639.818359	89.910	64.8289
6687.933594	89.709	51.9837
6736.396973	88.890	43.2821
6785.211426	87.811	39.1015
6834.379883	86.750	38.7108
6883.904785	85.858	41.1695
6933.788574	85.189	45.5182
6984.033691	84.757	50.8633
7034.642578	84.567	56.5472
7085.618652	84.598	62.1877
7136.963867	84.806	67.5348
7188.681152	85.152	72.4128
7240.773438	85.605	76.7302
7293.243164	86.140	80.4378
7346.092773	86.738	83.5039
7399.325684	87.384	85.8893
7452.944336	88.063	87.5445
7506.951172	88.760	88.4079
7561.350098	89.453	88.4034
7616.142578	90.114	87.4659
7671.332031	90.705	85.5717
7726.921875	91.188	82.7730
7782.914551	91.529	79.2365
7839.312500	91.707	75.2538
7896.119629	91.718	71.2060
7953.337891	91.578	67.4818
8010.971191	91.321	64.3763
8069.021973	90.985	62.0414
8127.493164	90.603	60.5031
8186.388672	90.202	59.7055
8245.710938	89.803	59.5505
8305.461914	89.423	59.9277
8365.647461	89.072	60.7261
8426.267578	88.761	61.8365
8487.328125	88.495	63.1532
8548.831055	88.274	64.5815
8610.779297	88.098	66.0303
8673.176758	87.961	67.4063
8736.026367	87.860	68.6223
8799.331055	87.789	69.5979
8863.094727	87.739	70.2523
8927.320312	87.694	70.4896
8992.010742	87.631	70.1951
9057.170898	87.501	69.3078
9122.802734	87.223	68.1718
9188.910156	86.793	67.8249
9255.497070	86.393	68.5717
9322.566406	86.117	69.2327
9390.121094	85.844	69.2810
9458.166016	85.497	69.0595
9526.704102	85.073	68.8838
9595.738281	84.591	68.9050
9665.273438	84.063	69.2046
9735.311523	83.493	69.7990
9805.857422	82.887	70.6871
9876.915039	82.251	71.9031
9948.487305	81.586	73.4804
10020.578125	80.899	75.4374
10093.191406	80.196	77.8070
10166.331055	79.484	80.6213
10240.000000	78.772	83.8803
10314.203125	78.069	87.5636
10388.944336	77.382	91.6487
10464.226562	76.715	96.1445
10540.054688	76.075	101.0552
10616.432617	75.475	106.3334
10693.363281	74.919	111.8926
10770.852539	74.406	117.7747
10848.902344	73.954	123.9499
10927.517578	73.574	130.2579
11006.703125	73.257	136.5979
11086.461914	72.992	142.9266
11166.798828	72.783	149.1871
11247.718750	72.629	155.1611
11329.223633	72.471	160.7195
11411.320312	72.248	166.2280
11494.011719	71.968	172.2403
11577.301758	71.713	178.9892
11661.195312	71.562	-173.7657
11745.697266	71.525	-166.4305
11830.811523	71.577	-159.2360
11916.542969	71.697	-152.2348
12002.894531	71.878	-145.4183
12089.873047	72.119	-138.8225
12177.480469	72.424	-132.5193
12265.723633	72.796	-126.5869
12354.606445	73.222	-121.1273
12444.132812	73.680	-116.2418
12534.308594	74.140	-112.1954
12625.136719	74.495	-109.2424
12716.624023	74.606	-106.5643
12808.773438	74.521	-102.4868
12901.591797	74.486	-96.4118
12995.082031	74.702	-89.2674
13089.250000	75.182	-82.1771
13184.099609	75.853	-75.7268
13279.636719	76.656	-70.1222
13375.867188	77.553	-65.5098
13472.793945	78.512	-62.0283
13570.422852	79.499	-59.8153
13668.759766	80.482	-59.0099
13767.809570	81.401	-59.7232
13867.577148	82.140	-61.9149
13968.067383	82.588	-64.9467
14069.285156	82.766	-67.6328
14171.237305	82.779	-69.5232
14273.927734	82.634	-70.4286
14377.362305	82.432	-69.4514
14481.546875	82.449	-67.0861
14586.486328	82.720	-65.2110
14692.185547	83.038	-64.5689
14798.651367	83.311	-64.6143
14905.888672	83.576	-65.1894
15013.902344	83.807	-66.6294
15122.700195	83.929	-68.9224
15232.285156	83.901	-71.6940
15342.664062	83.708	-74.6482
15453.843750	83.336	-77.5958
15565.829102	82.782	-80.2683
15678.625000	82.055	-82.3340
15792.239258	81.172	-83.5789
15906.675781	80.131	-83.6822
16021.942383	78.966	-82.1174
16138.043945	77.757	-78.6009
16254.986328	76.600	-72.9446
16372.777344	75.669	-65.3523
16491.421875	75.161	-57.0057
16610.923828	75.081	-49.6964
16731.294922	75.209	-44.6529
16852.535156	75.273	-42.0214
16974.656250	75.061	-40.7172
17097.662109	74.531	-39.0180
17221.558594	73.787	-35.7550
17346.353516	72.967	-30.7024
17472.052734	72.200	-24.2354
17598.662109	71.578	-16.8722
17726.189453	71.142	-9.0674
17854.640625	70.896	-1.1971
17984.021484	70.833	6.4151
18114.341797	70.925	13.4186
18245.605469	71.144	19.6377
18377.820312	71.458	24.9057
18510.994141	71.819	29.0564
18645.132812	72.171	32.0574
18780.242188	72.465	34.0721
18916.332031	72.686	35.3577
19053.408203	72.851	35.9718
19191.476562	72.949	35.7520
19330.546875	72.929	34.6741
19470.623047	72.723	33.0281
19611.714844	72.281	31.2164
19753.830078	71.586	29.5055
19896.974609	70.675	28.2168
