* Measurement data measured by REW V5.20.13
* Source: C:\Users\chsk9\Pictures\Samsung Flow\TRECENTO 2020 Live Sample 1 (by 이신렬) (KLIPPEL-Measured) L.csv
* Format: Comma/Tab/Space delimited data
* Dated: 2022. 12. 26 오전 12:05:18
* REW Settings:
*  C-weighting compensation: Off
*  Target level: 75.0 dB
* Note: Measurement imported from C:\Users\chsk9\Pictures\Samsung Flow\TRECENTO 2020 Live Sample 1 (by 이신렬) (KLIPPEL-Measured) L.csv Format: Comma/Tab/Space delimited data 480 values loaded, 20 Hz to 19,191 Hz log spaced
* Measurement: TRECENTO 2020 Live Sample
* Smoothing: 1/24 octave
* Frequency Step: 1/48 octave
* Start Frequency: 20.000 Hz
*
* Freq(Hz)	SPL(dB)
20.000000	28.648
20.299999	28.718
20.600000	28.809
20.900000	28.895
21.200001	28.969
21.400000	29.019
21.799999	29.119
22.000000	29.168
22.400000	29.255
22.700001	29.312
23.000000	29.373
23.299999	29.442
23.600000	29.512
24.000000	29.600
24.299999	29.664
24.700001	29.747
25.000000	29.803
25.400000	29.870
25.799999	29.930
26.200001	29.991
26.500000	30.038
26.900000	30.100
27.200001	30.142
27.600000	30.196
28.000000	30.248
28.500000	30.306
29.000000	30.358
29.500000	30.409
30.000000	30.465
30.400000	30.507
30.700001	30.535
31.100000	30.569
31.500000	30.606
32.000000	30.656
32.500000	30.704
33.000000	30.745
33.500000	30.780
34.000000	30.813
34.500000	30.846
35.000000	30.878
35.500000	30.906
36.000000	30.928
36.500000	30.945
37.000000	30.962
37.500000	30.980
38.200001	31.009
38.700001	31.031
39.500000	31.065
40.000000	31.083
40.599998	31.101
41.200001	31.118
41.799999	31.134
42.500000	31.150
43.099998	31.162
43.700001	31.172
44.400002	31.181
45.000000	31.190
45.500000	31.197
46.200001	31.207
46.799999	31.217
47.500000	31.229
48.200001	31.240
48.700001	31.245
49.400002	31.246
50.000000	31.242
50.799999	31.232
51.500000	31.221
52.200001	31.210
53.000000	31.197
53.799999	31.186
54.500000	31.177
55.200001	31.169
56.000000	31.158
57.000000	31.143
58.000000	31.127
59.000000	31.109
60.000000	31.088
60.799999	31.070
61.500000	31.053
62.200001	31.036
63.000000	31.016
64.000000	30.990
65.000000	30.963
66.000000	30.935
67.000000	30.905
68.000000	30.874
69.000000	30.840
70.000000	30.805
71.000000	30.768
72.000000	30.729
73.000000	30.689
74.000000	30.649
75.000000	30.608
76.199997	30.560
77.500000	30.507
78.800003	30.455
80.000000	30.407
81.199997	30.360
82.500000	30.308
83.800003	30.257
85.000000	30.211
86.199997	30.170
87.500000	30.130
88.500000	30.103
90.000000	30.065
91.199997	30.040
92.500000	30.018
93.800003	30.002
95.000000	29.994
96.199997	29.987
97.500000	29.979
98.800003	29.965
100.000000	29.946
101.500000	29.913
103.000000	29.871
104.400002	29.827
106.000000	29.776
107.500000	29.729
109.000000	29.682
110.599998	29.628
112.000000	29.573
113.800003	29.494
115.000000	29.439
117.199997	29.339
118.000000	29.304
120.599998	29.196
122.000000	29.139
124.099998	29.051
125.000000	29.012
126.500000	28.947
128.000000	28.883
131.500000	28.748
132.000000	28.730
134.000000	28.659
136.000000	28.584
138.000000	28.501
140.000000	28.411
143.000000	28.272
145.000000	28.179
147.500000	28.067
150.000000	27.960
152.500000	27.861
155.000000	27.770
157.500000	27.689
160.000000	27.619
162.500000	27.563
165.000000	27.526
167.500000	27.506
170.000000	27.502
172.500000	27.507
175.000000	27.512
177.500000	27.513
180.000000	27.510
182.500000	27.503
185.000000	27.489
187.500000	27.468
190.000000	27.434
192.500000	27.388
195.000000	27.333
197.500000	27.274
200.000000	27.216
203.000000	27.145
206.000000	27.063
209.000000	26.974
212.000000	26.891
214.000000	26.841
218.000000	26.747
220.000000	26.701
224.000000	26.608
227.000000	26.535
230.000000	26.458
233.000000	26.381
236.000000	26.306
240.000000	26.209
243.000000	26.139
247.000000	26.047
250.000000	25.980
254.000000	25.892
258.000000	25.805
262.000000	25.718
265.000000	25.655
269.000000	25.576
272.000000	25.522
276.000000	25.451
280.000000	25.379
285.000000	25.287
290.000000	25.199
295.000000	25.121
300.000000	25.042
304.000000	24.975
307.000000	24.924
311.000000	24.859
315.000000	24.796
320.000000	24.716
325.000000	24.637
330.000000	24.561
335.000000	24.492
340.000000	24.425
345.000000	24.358
350.000000	24.290
355.000000	24.223
360.000000	24.158
365.000000	24.095
370.000000	24.034
375.000000	23.975
382.000000	23.896
387.000000	23.841
395.000000	23.756
400.000000	23.705
406.000000	23.644
412.000000	23.584
418.000000	23.523
425.000000	23.451
431.000000	23.394
437.000000	23.342
444.000000	23.288
450.000000	23.244
455.000000	23.207
462.000000	23.154
468.000000	23.105
475.000000	23.049
482.000000	22.997
487.000000	22.963
494.000000	22.918
500.000000	22.880
508.000000	22.831
515.000000	22.792
522.000000	22.754
530.000000	22.710
538.000000	22.664
545.000000	22.624
552.000000	22.584
560.000000	22.540
570.000000	22.489
580.000000	22.442
590.000000	22.401
600.000000	22.363
608.000000	22.336
615.000000	22.314
622.000000	22.292
630.000000	22.268
640.000000	22.236
650.000000	22.206
660.000000	22.179
670.000000	22.158
680.000000	22.142
690.000000	22.131
700.000000	22.122
710.000000	22.115
720.000000	22.110
730.000000	22.106
740.000000	22.104
750.000000	22.103
762.000000	22.106
775.000000	22.115
788.000000	22.130
800.000000	22.150
812.000000	22.175
825.000000	22.207
838.000000	22.246
850.000000	22.287
862.000000	22.332
875.000000	22.381
885.000000	22.420
900.000000	22.490
912.000000	22.555
925.000000	22.630
938.000000	22.709
950.000000	22.784
962.000000	22.862
975.000000	22.951
988.000000	23.043
1000.000000	23.130
1015.000000	23.240
1030.000000	23.349
1044.000000	23.451
1060.000000	23.575
1075.000000	23.701
1090.000000	23.828
1106.000000	23.957
1120.000000	24.063
1138.000000	24.200
1150.000000	24.295
1172.000000	24.466
1180.000000	24.529
1206.000000	24.740
1220.000000	24.855
1241.000000	25.024
1250.000000	25.095
1265.000000	25.210
1280.000000	25.322
1315.000000	25.571
1320.000000	25.606
1340.000000	25.746
1360.000000	25.887
1380.000000	26.031
1400.000000	26.177
1430.000000	26.395
1450.000000	26.538
1475.000000	26.715
1500.000000	26.893
1525.000000	27.078
1550.000000	27.275
1575.000000	27.483
1600.000000	27.692
1625.000000	27.894
1650.000000	28.088
1675.000000	28.284
1700.000000	28.491
1725.000000	28.716
1750.000000	28.952
1775.000000	29.186
1800.000000	29.407
1825.000000	29.621
1850.000000	29.841
1875.000000	30.078
1900.000000	30.327
1925.000000	30.578
1950.000000	30.821
1975.000000	31.054
2000.000000	31.279
2030.000000	31.546
2060.000000	31.813
2090.000000	32.080
2120.000000	32.349
2140.000000	32.527
2180.000000	32.874
2200.000000	33.040
2240.000000	33.346
2270.000000	33.552
2300.000000	33.737
2330.000000	33.907
2360.000000	34.060
2400.000000	34.237
2430.000000	34.343
2470.000000	34.442
2500.000000	34.479
2540.000000	34.488
2580.000000	34.469
2620.000000	34.415
2650.000000	34.354
2690.000000	34.259
2720.000000	34.179
2760.000000	34.067
2800.000000	33.956
2850.000000	33.818
2900.000000	33.681
2950.000000	33.564
3000.000000	33.464
3040.000000	33.389
3070.000000	33.337
3110.000000	33.275
3150.000000	33.223
3200.000000	33.160
3250.000000	33.103
3300.000000	33.068
3350.000000	33.071
3400.000000	33.100
3450.000000	33.153
3500.000000	33.232
3550.000000	33.349
3600.000000	33.502
3650.000000	33.681
3700.000000	33.889
3750.000000	34.120
3820.000000	34.508
3870.000000	34.820
3950.000000	35.292
4000.000000	35.577
4060.000000	35.925
4120.000000	36.227
4180.000000	36.452
4250.000000	36.607
4310.000000	36.661
4370.000000	36.635
4440.000000	36.519
4500.000000	36.343
4550.000000	36.151
4620.000000	35.843
4680.000000	35.544
4750.000000	35.156
4820.000000	34.736
4870.000000	34.393
4940.000000	33.863
5000.000000	33.446
5080.000000	32.925
5150.000000	32.442
5220.000000	32.001
5300.000000	31.552
5380.000000	31.207
5450.000000	30.946
5520.000000	30.725
5600.000000	30.566
5700.000000	30.483
5800.000000	30.530
5900.000000	30.668
6000.000000	30.948
6080.000000	31.247
6150.000000	31.520
6220.000000	31.798
6300.000000	32.100
6400.000000	32.422
6500.000000	32.688
6600.000000	32.855
6700.000000	32.921
6800.000000	32.914
6900.000000	32.795
7000.000000	32.589
7100.000000	32.349
7200.000000	32.087
7300.000000	31.846
7400.000000	31.646
7500.000000	31.489
7620.000000	31.403
7750.000000	31.446
7880.000000	31.554
8000.000000	31.676
8120.000000	31.758
8250.000000	31.696
8380.000000	31.481
8500.000000	31.034
8620.000000	30.443
8750.000000	29.651
8850.000000	28.884
9000.000000	27.722
9120.000000	26.638
9250.000000	25.429
9380.000000	24.372
9500.000000	23.448
9620.000000	22.630
9750.000000	21.871
9880.000000	21.222
10000.000000	20.704
10150.000000	20.169
10300.000000	19.819
10440.000000	19.667
10600.000000	19.654
10750.000000	19.767
10900.000000	19.974
11060.000000	20.289
11200.000000	20.668
11380.000000	21.278
11500.000000	21.715
11720.000000	22.516
11800.000000	22.797
12060.000000	23.559
12200.000000	23.931
12410.000000	24.426
12500.000000	24.601
12650.000000	24.845
12800.000000	25.011
13150.000000	25.116
13200.000000	25.092
13400.000000	24.878
13600.000000	24.500
13800.000000	23.944
14000.000000	23.192
14300.000000	21.689
14500.000000	20.488
14750.000000	18.801
15000.000000	16.879
15250.000000	15.054
15500.000000	13.485
15750.000000	11.985
16000.000000	10.378
16250.000000	9.167
16500.000000	8.387
16750.000000	7.837
17000.000000	7.577
17250.000000	7.550
17500.000000	7.718
17750.000000	8.032
18000.000000	8.414
18250.000000	8.876
18500.000000	9.361
18750.000000	9.823
19000.000000	10.244
