* Measurement data measured by REW V5.20.13
* Source: USB-C to 3.5mm Headphone Jack Adapter, USB-C to 3.5mm Headphone Jack Adapter, 0, volume: 0.490
* Format: 256k Log Swept Sine, 1 sweep at -12.0 dBFS with no timing reference
* Dated: 2022. 11. 13 ¿ÀÈÄ 12:27:12
* REW Settings:
*  C-weighting compensation: Off
*  Target level: 75.0 dB
* Note: 
* Measurement: L
* Smoothing: 1/24 octave
* Frequency Step: 1/48 octave
* Start Frequency: 20.300 Hz
*
* Freq(Hz)	SPL(dB)	Phase(degrees)
20.299999	97.012	67.7070
20.600000	97.079	67.1726
20.900000	97.205	66.2438
21.200001	97.303	65.4466
21.400000	97.361	65.0156
21.799999	97.491	64.2992
22.000000	97.570	63.9477
22.400000	97.756	63.1014
22.700001	97.899	62.2545
23.000000	98.020	61.2410
23.299999	98.108	60.1997
23.600000	98.168	59.2786
24.000000	98.230	58.4093
24.299999	98.293	58.0261
24.700001	98.428	57.6798
25.000000	98.562	57.3484
25.400000	98.753	56.6425
25.799999	98.915	55.6738
26.200001	99.026	54.6668
26.500000	99.082	54.0225
26.900000	99.138	53.3771
27.200001	99.181	53.0185
27.600000	99.246	52.6111
28.000000	99.316	52.1997
28.500000	99.403	51.6652
29.000000	99.494	51.1313
29.500000	99.603	50.5078
30.000000	99.722	49.6378
30.400000	99.804	48.7530
30.700001	99.852	48.0336
31.100000	99.901	47.0986
31.500000	99.946	46.2465
32.000000	100.019	45.2578
32.500000	100.114	44.2072
33.000000	100.212	43.0164
33.500000	100.292	41.7868
34.000000	100.352	40.7030
34.500000	100.412	39.8572
35.000000	100.490	39.1930
35.500000	100.589	38.5792
36.000000	100.697	37.9245
36.500000	100.798	37.2187
37.000000	100.883	36.5075
37.500000	100.950	35.8427
38.200001	101.029	35.0232
38.700001	101.083	34.4756
39.500000	101.168	33.5104
40.000000	101.212	32.8186
40.599998	101.253	31.9387
41.200001	101.288	31.0533
41.799999	101.328	30.1517
42.500000	101.383	29.0278
43.099998	101.434	28.0039
43.700001	101.486	26.9636
44.400002	101.550	25.7504
45.000000	101.603	24.7177
45.500000	101.640	23.8992
46.200001	101.686	22.8991
46.799999	101.732	22.1908
47.500000	101.800	21.4370
48.200001	101.873	20.6728
48.700001	101.920	20.1266
49.400002	101.980	19.3841
50.000000	102.027	18.7477
50.799999	102.082	17.8735
51.500000	102.126	17.1054
52.200001	102.172	16.3051
53.000000	102.223	15.2817
53.799999	102.258	14.2347
54.500000	102.290	13.3808
55.200001	102.330	12.4963
56.000000	102.357	11.4588
57.000000	102.375	10.5165
58.000000	102.449	9.7236
59.000000	102.517	8.6158
60.000000	102.542	7.5181
60.799999	102.556	6.6344
61.500000	102.556	5.8265
62.200001	102.550	5.0520
63.000000	102.548	4.1927
64.000000	102.553	3.0879
65.000000	102.565	1.9816
66.000000	102.580	0.9110
67.000000	102.596	-0.0816
68.000000	102.611	-0.9758
69.000000	102.631	-1.8125
70.000000	102.648	-2.6793
71.000000	102.654	-3.5802
72.000000	102.654	-4.4848
73.000000	102.657	-5.4109
74.000000	102.662	-6.4134
75.000000	102.656	-7.4205
76.199997	102.654	-8.5146
77.500000	102.659	-9.7196
78.800003	102.643	-10.8511
80.000000	102.629	-11.8047
81.199997	102.611	-12.7781
82.500000	102.579	-13.7984
83.800003	102.553	-14.7145
85.000000	102.539	-15.6221
86.199997	102.511	-16.5334
87.500000	102.476	-17.4810
88.500000	102.442	-18.1786
90.000000	102.400	-19.1174
91.199997	102.378	-19.8514
92.500000	102.366	-20.5735
93.800003	102.374	-21.2129
95.000000	102.398	-21.7937
96.199997	102.423	-22.3965
97.500000	102.448	-23.0603
98.800003	102.467	-23.8102
100.000000	102.472	-24.5771
101.500000	102.458	-25.5579
103.000000	102.434	-26.4810
104.400002	102.409	-27.2821
106.000000	102.375	-28.1342
107.500000	102.345	-28.8674
109.000000	102.323	-29.5881
110.599998	102.315	-30.3227
112.000000	102.328	-30.9885
113.800003	102.354	-31.9456
115.000000	102.364	-32.6286
117.199997	102.360	-33.9530
118.000000	102.352	-34.4853
120.599998	102.317	-36.2314
122.000000	102.318	-37.2131
124.099998	102.310	-38.7522
125.000000	102.297	-39.3651
126.500000	102.263	-40.3160
128.000000	102.217	-41.1818
131.500000	102.104	-43.1418
132.000000	102.091	-43.4106
134.000000	102.035	-44.4951
136.000000	101.970	-45.3822
138.000000	101.911	-46.2186
140.000000	101.838	-46.7447
143.000000	101.857	-47.3702
145.000000	101.902	-47.8140
147.500000	102.063	-49.5526
150.000000	101.926	-52.6019
152.500000	101.624	-53.4720
155.000000	101.572	-53.1141
157.500000	101.648	-53.7605
160.000000	101.618	-55.2053
162.500000	101.530	-56.3373
165.000000	101.470	-57.1987
167.500000	101.426	-58.0606
170.000000	101.382	-58.9610
172.500000	101.340	-59.8117
175.000000	101.300	-60.5988
177.500000	101.258	-61.3805
180.000000	101.218	-62.2075
182.500000	101.181	-63.0242
185.000000	101.142	-63.8111
187.500000	101.098	-64.5984
190.000000	101.054	-65.3966
192.500000	101.013	-66.1801
195.000000	100.976	-66.9383
197.500000	100.940	-67.6862
200.000000	100.905	-68.4069
203.000000	100.864	-69.2321
206.000000	100.817	-70.0422
209.000000	100.774	-70.8634
212.000000	100.736	-71.6581
214.000000	100.709	-72.1542
218.000000	100.653	-73.1499
220.000000	100.629	-73.6544
224.000000	100.578	-74.5822
227.000000	100.533	-75.2778
230.000000	100.496	-75.9945
233.000000	100.463	-76.6539
236.000000	100.431	-77.2142
240.000000	100.403	-78.0249
243.000000	100.379	-78.7375
247.000000	100.327	-79.6258
250.000000	100.292	-80.2868
254.000000	100.248	-81.1229
258.000000	100.212	-81.9470
262.000000	100.172	-82.6636
265.000000	100.151	-83.2011
269.000000	100.105	-84.0162
272.000000	100.079	-84.4838
276.000000	100.074	-85.1632
280.000000	100.089	-86.0454
285.000000	99.974	-86.6740
290.000000	99.819	-87.0620
295.000000	99.894	-87.9086
300.000000	99.855	-89.1870
304.000000	99.819	-90.3986
307.000000	99.832	-90.9933
311.000000	99.850	-91.3715
315.000000	99.843	-91.7063
320.000000	99.825	-92.3142
325.000000	99.809	-92.9983
330.000000	99.797	-93.6791
335.000000	99.783	-94.3351
340.000000	99.768	-94.9809
345.000000	99.743	-95.6226
350.000000	99.726	-96.2687
355.000000	99.705	-96.9190
360.000000	99.693	-97.5010
365.000000	99.683	-98.1467
370.000000	99.657	-98.6965
375.000000	99.650	-99.1707
382.000000	99.644	-100.1360
387.000000	99.584	-100.7303
395.000000	99.570	-100.8548
400.000000	99.647	-101.4207
406.000000	99.651	-102.5976
412.000000	99.560	-103.4860
418.000000	99.487	-104.2378
425.000000	99.529	-105.1987
431.000000	99.621	-105.5354
437.000000	99.568	-105.2986
444.000000	99.495	-106.1605
450.000000	99.546	-107.3668
455.000000	99.523	-107.4370
462.000000	99.527	-107.2893
468.000000	99.555	-107.6015
475.000000	99.540	-108.4593
482.000000	99.526	-109.4105
487.000000	99.506	-109.9288
494.000000	99.468	-110.4194
500.000000	99.443	-110.6789
508.000000	99.472	-111.0162
515.000000	99.518	-111.4988
522.000000	99.528	-112.0011
530.000000	99.505	-112.3752
538.000000	99.486	-112.7926
545.000000	99.491	-113.2328
552.000000	99.507	-113.5996
560.000000	99.517	-113.8730
570.000000	99.501	-114.4015
580.000000	99.507	-114.9917
590.000000	99.510	-115.4855
600.000000	99.517	-115.9542
608.000000	99.512	-116.2679
615.000000	99.508	-116.5545
622.000000	99.510	-116.8518
630.000000	99.515	-117.1517
640.000000	99.516	-117.5231
650.000000	99.516	-117.8640
660.000000	99.516	-118.1907
670.000000	99.519	-118.5389
680.000000	99.523	-118.8910
690.000000	99.535	-119.1767
700.000000	99.544	-119.3959
710.000000	99.552	-119.6011
720.000000	99.561	-119.8353
730.000000	99.570	-120.0474
740.000000	99.580	-120.2241
750.000000	99.587	-120.3699
762.000000	99.597	-120.5590
775.000000	99.615	-120.7654
788.000000	99.638	-120.9379
800.000000	99.661	-121.0662
812.000000	99.681	-121.1957
825.000000	99.703	-121.3553
838.000000	99.734	-121.4512
850.000000	99.767	-121.5312
862.000000	99.801	-121.6197
875.000000	99.840	-121.7147
885.000000	99.871	-121.7847
900.000000	99.920	-121.8708
912.000000	99.962	-121.9526
925.000000	100.011	-122.0622
938.000000	100.062	-122.1829
950.000000	100.111	-122.2950
962.000000	100.164	-122.4184
975.000000	100.223	-122.5669
988.000000	100.283	-122.7262
1000.000000	100.338	-122.8978
1015.000000	100.403	-123.1385
1030.000000	100.468	-123.3994
1044.000000	100.529	-123.6590
1060.000000	100.598	-123.9779
1075.000000	100.659	-124.3000
1090.000000	100.721	-124.6404
1106.000000	100.792	-125.0187
1120.000000	100.854	-125.3532
1138.000000	100.929	-125.8023
1150.000000	100.975	-126.1151
1172.000000	101.054	-126.6848
1180.000000	101.080	-126.8924
1206.000000	101.160	-127.5750
1220.000000	101.199	-127.9287
1241.000000	101.253	-128.4429
1250.000000	101.273	-128.6568
1265.000000	101.306	-129.0030
1280.000000	101.336	-129.3373
1315.000000	101.395	-130.0512
1320.000000	101.402	-130.1447
1340.000000	101.428	-130.4908
1360.000000	101.447	-130.8015
1380.000000	101.467	-131.0829
1400.000000	101.493	-131.3263
1430.000000	101.537	-131.6510
1450.000000	101.568	-131.8570
1475.000000	101.605	-132.1175
1500.000000	101.637	-132.3585
1525.000000	101.662	-132.5694
1550.000000	101.681	-132.7242
1575.000000	101.698	-132.8083
1600.000000	101.715	-132.8312
1625.000000	101.733	-132.7937
1650.000000	101.751	-132.6891
1675.000000	101.770	-132.5274
1700.000000	101.789	-132.2982
1725.000000	101.807	-131.9776
1750.000000	101.829	-131.5430
1775.000000	101.858	-130.9822
1800.000000	101.899	-130.2332
1825.000000	101.970	-129.2935
1850.000000	102.087	-128.2187
1875.000000	102.263	-127.1234
1900.000000	102.500	-126.1922
1925.000000	102.783	-125.5871
1950.000000	103.085	-125.3893
1975.000000	103.381	-125.5896
2000.000000	103.651	-126.1049
2030.000000	103.932	-126.9491
2060.000000	104.172	-127.8587
2090.000000	104.385	-128.7353
2120.000000	104.590	-129.5672
2140.000000	104.726	-130.1493
2180.000000	104.998	-131.4227
2200.000000	105.131	-132.1145
2240.000000	105.381	-133.6010
2270.000000	105.552	-134.8193
2300.000000	105.709	-136.1376
2330.000000	105.850	-137.5179
2360.000000	105.972	-138.9415
2400.000000	106.105	-140.8919
2430.000000	106.182	-142.3749
2470.000000	106.250	-144.3245
2500.000000	106.279	-145.7377
2540.000000	106.292	-147.5239
2580.000000	106.282	-149.1638
2620.000000	106.254	-150.6396
2650.000000	106.226	-151.6410
2690.000000	106.182	-152.8429
2720.000000	106.148	-153.6454
2760.000000	106.102	-154.5868
2800.000000	106.061	-155.3947
2850.000000	106.021	-156.2349
2900.000000	106.000	-156.9206
2950.000000	106.005	-157.5034
3000.000000	106.035	-158.0525
3040.000000	106.075	-158.5179
3070.000000	106.113	-158.8942
3110.000000	106.173	-159.4340
3150.000000	106.241	-160.0117
3200.000000	106.333	-160.8009
3250.000000	106.434	-161.6964
3300.000000	106.541	-162.7289
3350.000000	106.641	-163.9356
3400.000000	106.715	-165.3073
3450.000000	106.746	-166.6572
3500.000000	106.752	-167.6414
3550.000000	106.804	-168.2031
3600.000000	106.942	-168.8058
3650.000000	107.122	-169.8543
3700.000000	107.296	-171.3496
3750.000000	107.443	-173.1436
3820.000000	107.596	-175.9703
3870.000000	107.663	-178.1539
3950.000000	107.686	178.1572
4000.000000	107.647	175.7932
4060.000000	107.541	172.9875
4120.000000	107.372	170.3194
4180.000000	107.144	167.9031
4250.000000	106.819	165.5374
4310.000000	106.503	163.9661
4370.000000	106.166	162.8465
4440.000000	105.769	162.1144
4500.000000	105.445	161.9708
4550.000000	105.200	162.1866
4620.000000	104.920	162.9654
4680.000000	104.763	163.9818
4750.000000	104.710	165.3422
4820.000000	104.812	166.4641
4870.000000	104.963	166.8188
4940.000000	105.221	166.3719
5000.000000	105.414	165.0642
5080.000000	105.527	162.3910
5150.000000	105.452	159.8706
5220.000000	105.238	157.8146
5300.000000	104.901	156.4355
5380.000000	104.555	156.0952
5450.000000	104.294	156.4495
5520.000000	104.095	157.2073
5600.000000	103.950	158.3524
5700.000000	103.888	159.9453
5800.000000	103.955	161.4742
5900.000000	104.140	162.7067
6000.000000	104.425	163.4110
6080.000000	104.708	163.4478
6150.000000	104.979	163.0033
6220.000000	105.252	162.0471
6300.000000	105.533	160.2979
6400.000000	105.783	157.2197
6500.000000	105.863	153.4833
6600.000000	105.743	149.6589
6700.000000	105.452	146.3060
6800.000000	105.043	143.6959
6900.000000	104.574	141.9447
7000.000000	104.094	141.0937
7100.000000	103.643	141.0465
7200.000000	103.250	141.5638
7300.000000	102.931	142.3681
7400.000000	102.684	143.2571
7500.000000	102.512	144.0396
7620.000000	102.406	144.5361
7750.000000	102.375	144.1068
7880.000000	102.288	142.2548
8000.000000	102.072	139.1584
8120.000000	101.647	135.0150
8250.000000	100.880	130.1370
8380.000000	99.794	125.8586
8500.000000	98.565	123.0965
8620.000000	97.195	121.7161
8750.000000	95.630	121.7320
8850.000000	94.414	122.6859
9000.000000	92.629	125.4130
9120.000000	91.263	128.5338
9250.000000	89.869	132.6364
9380.000000	88.576	137.3276
9500.000000	87.477	142.1276
9620.000000	86.490	147.3092
9750.000000	85.572	153.0770
9880.000000	84.770	158.9034
10000.000000	84.113	164.3873
10150.000000	83.437	171.2783
10300.000000	82.906	178.1703
10440.000000	82.523	-175.4536
10600.000000	82.196	-168.1609
10750.000000	81.969	-161.1871
10900.000000	81.802	-153.8958
11060.000000	81.707	-145.4609
11200.000000	81.734	-137.2623
11380.000000	82.040	-125.5589
11500.000000	82.490	-117.3512
11720.000000	83.862	-102.9520
11800.000000	84.502	-98.2972
12060.000000	86.858	-86.1066
12200.000000	88.214	-81.4240
12410.000000	90.245	-76.9933
12500.000000	91.087	-76.0632
12650.000000	92.415	-75.7285
12800.000000	93.619	-76.6713
13150.000000	95.996	-81.8424
13200.000000	96.306	-82.7963
13400.000000	97.542	-87.2007
13600.000000	98.820	-93.0973
13800.000000	100.130	-101.6173
14000.000000	101.318	-114.0972
14300.000000	102.204	-141.7041
14500.000000	101.729	-163.6265
14750.000000	99.847	172.0629
15000.000000	97.123	155.0905
15250.000000	94.379	143.8389
15500.000000	92.181	134.9673
15750.000000	90.738	125.9152
16000.000000	90.019	114.9963
16250.000000	89.862	101.0702
16500.000000	90.076	84.4871
16750.000000	90.718	65.8536
17000.000000	91.858	44.0184
17250.000000	93.306	16.6627
17500.000000	94.583	-18.8055
17750.000000	95.021	-63.1145
18000.000000	94.147	-112.4637
18250.000000	91.918	-161.0442
18500.000000	88.586	154.2925
18750.000000	84.459	113.9307
19000.000000	79.826	76.8197
19250.000000	74.987	40.7284
19500.000000	70.338	2.4774
19750.000000	66.439	-37.4857
20000.000000	64.180	-63.7935
