* Measurement data measured by REW V5.20.13
* Source: USB-C to 3.5mm Headphone Jack Adapter, USB-C to 3.5mm Headphone Jack Adapter, 0, volume: 0.490
* Format: 256k Log Swept Sine, 1 sweep at -12.0 dBFS with no timing reference
* Dated: 2022. 11. 13 ¿ÀÈÄ 12:29:29
* REW Settings:
*  C-weighting compensation: Off
*  Target level: 75.0 dB
* Note: 
* Measurement: R
* Smoothing: 1/24 octave
* Frequency Step: 1/48 octave
* Start Frequency: 20.300 Hz
*
* Freq(Hz)	SPL(dB)	Phase(degrees)
20.299999	97.076	67.8139
20.600000	97.202	67.6175
20.900000	97.450	67.1344
21.200001	97.669	66.3202
21.400000	97.789	65.6110
21.799999	97.958	63.9696
22.000000	98.007	63.1485
22.400000	98.048	61.7426
22.700001	98.053	61.0000
23.000000	98.068	60.5194
23.299999	98.110	60.1807
23.600000	98.182	59.8507
24.000000	98.309	59.2534
24.299999	98.406	58.6486
24.700001	98.516	57.7234
25.000000	98.581	57.0538
25.400000	98.658	56.3044
25.799999	98.749	55.7099
26.200001	98.865	55.1302
26.500000	98.963	54.6075
26.900000	99.086	53.7409
27.200001	99.160	52.9996
27.600000	99.223	52.0096
28.000000	99.257	51.1802
28.500000	99.291	50.5011
29.000000	99.364	50.1040
29.500000	99.495	49.6759
30.000000	99.655	48.9240
30.400000	99.771	48.0548
30.700001	99.839	47.3085
31.100000	99.898	46.3293
31.500000	99.935	45.4959
32.000000	99.984	44.7200
32.500000	100.069	44.0622
33.000000	100.181	43.2421
33.500000	100.281	42.2091
34.000000	100.344	41.2008
34.500000	100.397	40.4392
35.000000	100.478	39.8346
35.500000	100.586	39.0957
36.000000	100.681	38.1314
36.500000	100.736	37.1670
37.000000	100.778	36.4323
37.500000	100.844	35.8385
38.200001	100.959	34.7908
38.700001	101.014	33.9143
39.500000	101.077	32.8444
40.000000	101.148	32.2366
40.599998	101.235	31.2341
41.200001	101.265	30.1919
41.799999	101.280	29.5631
42.500000	101.379	29.0312
43.099998	101.492	28.1185
43.700001	101.543	27.0028
44.400002	101.559	26.1303
45.000000	101.621	25.6202
45.500000	101.698	24.9888
46.200001	101.771	23.8171
46.799999	101.798	22.9187
47.500000	101.842	22.0404
48.200001	101.896	21.0692
48.700001	101.919	20.3702
49.400002	101.946	19.5848
50.000000	101.994	19.0047
50.799999	102.075	18.0545
51.500000	102.121	17.1183
52.200001	102.148	16.3114
53.000000	102.188	15.5207
53.799999	102.236	14.6617
54.500000	102.266	13.8331
55.200001	102.282	13.0272
56.000000	102.304	12.2000
57.000000	102.369	11.0017
58.000000	102.389	9.3348
59.000000	102.320	8.1681
60.000000	102.340	7.6458
60.799999	102.418	6.9298
61.500000	102.472	6.1155
62.200001	102.512	5.3094
63.000000	102.549	4.3761
64.000000	102.567	3.2407
65.000000	102.573	2.2760
66.000000	102.594	1.3303
67.000000	102.613	0.2367
68.000000	102.609	-0.8490
69.000000	102.612	-1.8312
70.000000	102.620	-2.8360
71.000000	102.621	-3.7585
72.000000	102.629	-4.5891
73.000000	102.643	-5.4256
74.000000	102.644	-6.3408
75.000000	102.617	-7.1909
76.199997	102.583	-8.0765
77.500000	102.550	-9.0224
78.800003	102.529	-9.9165
80.000000	102.535	-10.7397
81.199997	102.544	-11.6776
82.500000	102.533	-12.6164
83.800003	102.500	-13.3913
85.000000	102.473	-13.8913
86.199997	102.454	-14.4128
87.500000	102.441	-14.7805
88.500000	102.494	-15.0753
90.000000	102.613	-16.1798
91.199997	102.684	-17.3032
92.500000	102.747	-18.6208
93.800003	102.760	-19.9413
95.000000	102.738	-20.8795
96.199997	102.730	-21.6511
97.500000	102.730	-22.5898
98.800003	102.719	-23.6174
100.000000	102.708	-24.5621
101.500000	102.698	-25.7667
103.000000	102.675	-26.9322
104.400002	102.653	-27.9193
106.000000	102.621	-29.1133
107.500000	102.574	-30.1679
109.000000	102.541	-31.1324
110.599998	102.512	-32.1811
112.000000	102.470	-33.0387
113.800003	102.401	-34.0094
115.000000	102.352	-34.6906
117.199997	102.248	-36.2769
118.000000	102.199	-36.9322
120.599998	102.034	-38.2758
122.000000	102.027	-38.6097
124.099998	102.027	-39.1958
125.000000	102.012	-39.4054
126.500000	101.975	-39.7320
128.000000	101.930	-40.0748
131.500000	101.888	-40.9551
132.000000	101.895	-41.0788
134.000000	101.954	-41.6264
136.000000	102.028	-42.3804
138.000000	102.067	-43.3218
140.000000	102.074	-44.3005
143.000000	102.074	-45.8839
145.000000	102.067	-47.0301
147.500000	102.038	-48.3994
150.000000	101.987	-49.5991
152.500000	101.928	-50.6685
155.000000	101.890	-51.6216
157.500000	101.872	-52.5581
160.000000	101.857	-53.5067
162.500000	101.838	-54.5882
165.000000	101.809	-55.7648
167.500000	101.769	-56.8604
170.000000	101.726	-57.8679
172.500000	101.679	-58.9199
175.000000	101.631	-59.9702
177.500000	101.586	-60.9511
180.000000	101.543	-61.8700
182.500000	101.494	-62.7585
185.000000	101.433	-63.5693
187.500000	101.369	-64.3166
190.000000	101.314	-65.0963
192.500000	101.268	-65.9107
195.000000	101.225	-66.6420
197.500000	101.185	-67.2695
200.000000	101.153	-67.9049
203.000000	101.120	-68.6948
206.000000	101.087	-69.4294
209.000000	101.052	-70.2071
212.000000	101.019	-71.0430
214.000000	101.005	-71.5901
218.000000	100.967	-72.7390
220.000000	100.939	-73.3179
224.000000	100.902	-74.4218
227.000000	100.879	-75.1772
230.000000	100.846	-75.8940
233.000000	100.808	-76.6207
236.000000	100.780	-77.3758
240.000000	100.747	-78.4086
243.000000	100.704	-79.0982
247.000000	100.639	-79.9339
250.000000	100.600	-80.5857
254.000000	100.555	-81.4670
258.000000	100.512	-82.3020
262.000000	100.472	-83.1104
265.000000	100.447	-83.7094
269.000000	100.413	-84.4874
272.000000	100.386	-85.0564
276.000000	100.354	-85.7876
280.000000	100.324	-86.5078
285.000000	100.286	-87.4017
290.000000	100.247	-88.2254
295.000000	100.212	-89.0319
300.000000	100.184	-89.8717
304.000000	100.162	-90.5628
307.000000	100.145	-91.0613
311.000000	100.126	-91.6928
315.000000	100.111	-92.2820
320.000000	100.091	-92.9646
325.000000	100.074	-93.6594
330.000000	100.061	-94.4033
335.000000	100.048	-95.1403
340.000000	100.033	-95.7801
345.000000	100.013	-96.3628
350.000000	99.994	-97.0347
355.000000	99.976	-97.7321
360.000000	99.958	-98.3993
365.000000	99.943	-99.0078
370.000000	99.927	-99.5747
375.000000	99.909	-100.1369
382.000000	99.881	-100.9377
387.000000	99.865	-101.5095
395.000000	99.845	-102.3970
400.000000	99.835	-102.9389
406.000000	99.821	-103.5534
412.000000	99.805	-104.1503
418.000000	99.791	-104.7350
425.000000	99.775	-105.3999
431.000000	99.761	-105.9465
437.000000	99.749	-106.4988
444.000000	99.741	-107.1269
450.000000	99.736	-107.6424
455.000000	99.733	-108.0508
462.000000	99.725	-108.6258
468.000000	99.721	-109.1281
475.000000	99.712	-109.6808
482.000000	99.705	-110.2265
487.000000	99.704	-110.5834
494.000000	99.704	-111.0724
500.000000	99.703	-111.5155
508.000000	99.701	-112.0625
515.000000	99.700	-112.5391
522.000000	99.700	-112.9898
530.000000	99.696	-113.4925
538.000000	99.695	-113.9607
545.000000	99.693	-114.3910
552.000000	99.691	-114.7922
560.000000	99.692	-115.2290
570.000000	99.690	-115.7532
580.000000	99.689	-116.2564
590.000000	99.688	-116.7422
600.000000	99.688	-117.2045
608.000000	99.688	-117.5581
615.000000	99.689	-117.8497
622.000000	99.689	-118.1262
630.000000	99.690	-118.4440
640.000000	99.687	-118.8331
650.000000	99.687	-119.1549
660.000000	99.694	-119.4676
670.000000	99.696	-119.7949
680.000000	99.698	-120.0822
690.000000	99.701	-120.3686
700.000000	99.702	-120.6161
710.000000	99.705	-120.8386
720.000000	99.708	-121.0446
730.000000	99.712	-121.2481
740.000000	99.719	-121.4360
750.000000	99.728	-121.6053
762.000000	99.738	-121.7853
775.000000	99.752	-121.9566
788.000000	99.767	-122.1122
800.000000	99.784	-122.2364
812.000000	99.805	-122.3541
825.000000	99.831	-122.4777
838.000000	99.856	-122.5833
850.000000	99.883	-122.6377
862.000000	99.915	-122.6919
875.000000	99.950	-122.7678
885.000000	99.979	-122.8271
900.000000	100.030	-122.9197
912.000000	100.073	-122.9951
925.000000	100.121	-123.0816
938.000000	100.169	-123.1767
950.000000	100.217	-123.2887
962.000000	100.268	-123.4011
975.000000	100.322	-123.5061
988.000000	100.371	-123.6297
1000.000000	100.422	-123.7772
1015.000000	100.494	-123.9940
1030.000000	100.567	-124.2464
1044.000000	100.630	-124.4982
1060.000000	100.699	-124.7976
1075.000000	100.761	-125.1019
1090.000000	100.823	-125.4271
1106.000000	100.895	-125.7863
1120.000000	100.955	-126.1081
1138.000000	101.028	-126.5379
1150.000000	101.073	-126.8330
1172.000000	101.155	-127.3892
1180.000000	101.183	-127.5918
1206.000000	101.265	-128.2383
1220.000000	101.305	-128.5735
1241.000000	101.359	-129.0580
1250.000000	101.380	-129.2590
1265.000000	101.414	-129.5832
1280.000000	101.444	-129.8908
1315.000000	101.504	-130.5332
1320.000000	101.512	-130.6172
1340.000000	101.539	-130.9323
1360.000000	101.560	-131.2084
1380.000000	101.581	-131.4436
1400.000000	101.609	-131.6407
1430.000000	101.651	-131.8637
1450.000000	101.680	-131.9671
1475.000000	101.717	-132.0374
1500.000000	101.758	-132.0178
1525.000000	101.810	-131.9145
1550.000000	101.880	-131.7716
1575.000000	101.971	-131.6582
1600.000000	102.075	-131.6501
1625.000000	102.178	-131.7523
1650.000000	102.269	-131.9181
1675.000000	102.351	-132.0809
1700.000000	102.426	-132.2031
1725.000000	102.499	-132.2870
1750.000000	102.570	-132.3490
1775.000000	102.641	-132.3895
1800.000000	102.710	-132.3862
1825.000000	102.779	-132.3064
1850.000000	102.851	-132.1234
1875.000000	102.934	-131.8311
1900.000000	103.038	-131.4397
1925.000000	103.176	-130.9739
1950.000000	103.356	-130.5243
1975.000000	103.578	-130.2244
2000.000000	103.833	-130.1949
2030.000000	104.150	-130.6050
2060.000000	104.446	-131.4505
2090.000000	104.703	-132.5788
2120.000000	104.922	-133.8657
2140.000000	105.051	-134.7631
2180.000000	105.275	-136.6047
2200.000000	105.369	-137.5378
2240.000000	105.531	-139.4128
2270.000000	105.631	-140.8245
2300.000000	105.713	-142.2367
2330.000000	105.776	-143.6427
2360.000000	105.823	-145.0287
2400.000000	105.860	-146.8189
2430.000000	105.870	-148.0977
2470.000000	105.864	-149.6919
2500.000000	105.848	-150.7928
2540.000000	105.815	-152.1364
2580.000000	105.774	-153.3464
2620.000000	105.728	-154.4235
2650.000000	105.691	-155.1473
2690.000000	105.642	-156.0041
2720.000000	105.606	-156.5690
2760.000000	105.563	-157.2213
2800.000000	105.527	-157.7645
2850.000000	105.497	-158.3169
2900.000000	105.485	-158.7528
2950.000000	105.498	-159.1109
3000.000000	105.536	-159.4402
3040.000000	105.584	-159.7191
3070.000000	105.629	-159.9535
3110.000000	105.700	-160.3123
3150.000000	105.779	-160.7325
3200.000000	105.886	-161.3442
3250.000000	105.997	-162.0455
3300.000000	106.113	-162.8351
3350.000000	106.232	-163.7067
3400.000000	106.353	-164.6661
3450.000000	106.480	-165.7203
3500.000000	106.610	-166.8718
3550.000000	106.737	-168.1257
3600.000000	106.857	-169.4811
3650.000000	106.965	-170.9318
3700.000000	107.060	-172.4695
3750.000000	107.139	-174.0827
3820.000000	107.219	-176.4389
3870.000000	107.249	-178.1791
3950.000000	107.242	178.9799
4000.000000	107.200	177.2253
4060.000000	107.112	175.2191
4120.000000	106.986	173.3991
4180.000000	106.832	171.8396
4250.000000	106.629	170.4353
4310.000000	106.449	169.6334
4370.000000	106.277	169.2222
4440.000000	106.118	169.2002
4500.000000	106.048	169.4990
4550.000000	106.056	169.8763
4620.000000	106.194	170.3253
4680.000000	106.432	170.2589
4750.000000	106.799	169.0978
4820.000000	107.143	166.4039
4870.000000	107.292	163.6451
4940.000000	107.287	159.2734
5000.000000	107.085	155.7875
5080.000000	106.619	152.3788
5150.000000	106.142	150.7695
5220.000000	105.688	150.2325
5300.000000	105.253	150.5035
5380.000000	104.926	151.3112
5450.000000	104.724	152.2323
5520.000000	104.592	153.2229
5600.000000	104.514	154.3359
5700.000000	104.512	155.5966
5800.000000	104.605	156.6156
5900.000000	104.782	157.2562
6000.000000	105.026	157.3212
6080.000000	105.246	156.8368
6150.000000	105.440	155.9742
6220.000000	105.616	154.6830
6300.000000	105.772	152.6925
6400.000000	105.855	149.5460
6500.000000	105.767	145.9797
6600.000000	105.486	142.5129
6700.000000	105.031	139.6851
6800.000000	104.460	137.8521
6900.000000	103.851	137.1288
7000.000000	103.270	137.4406
7100.000000	102.754	138.5750
7200.000000	102.326	140.2307
7300.000000	101.989	142.1215
7400.000000	101.736	144.0657
7500.000000	101.564	145.9374
7620.000000	101.481	147.8481
7750.000000	101.523	149.0535
7880.000000	101.570	148.8578
8000.000000	101.547	147.1428
8120.000000	101.379	143.9569
8250.000000	100.921	139.3354
8380.000000	100.109	134.5205
8500.000000	99.056	130.9042
8620.000000	97.783	128.7061
8750.000000	96.261	128.1422
8850.000000	95.059	128.9001
9000.000000	93.293	131.6202
9120.000000	91.947	134.9070
9250.000000	90.587	139.5010
9380.000000	89.383	144.7925
9500.000000	88.404	149.8791
9620.000000	87.525	155.1550
9750.000000	86.683	161.1028
9880.000000	85.962	167.2031
10000.000000	85.399	172.9246
10150.000000	84.827	-179.8293
10300.000000	84.387	-172.4644
10440.000000	84.095	-165.4500
10600.000000	83.906	-157.2931
10750.000000	83.884	-149.5366
10900.000000	84.016	-141.7421
11060.000000	84.313	-133.5291
11200.000000	84.690	-126.5334
11380.000000	85.318	-117.8162
11500.000000	85.823	-112.1710
11720.000000	86.949	-102.1776
11800.000000	87.436	-98.7218
12060.000000	89.288	-88.7848
12200.000000	90.407	-84.6831
12410.000000	92.125	-80.6696
12500.000000	92.850	-79.7423
12650.000000	94.024	-79.1378
12800.000000	95.156	-79.5366
13150.000000	97.742	-84.0284
13200.000000	98.114	-85.1676
13400.000000	99.579	-91.4998
13600.000000	100.893	-101.3091
13800.000000	101.863	-114.8949
14000.000000	102.309	-131.6914
14300.000000	101.715	-159.5974
14500.000000	100.473	-176.7770
14750.000000	98.277	166.0395
15000.000000	95.820	153.7804
15250.000000	93.574	145.4362
15500.000000	92.081	138.8143
15750.000000	91.625	130.2534
16000.000000	91.794	117.6167
16250.000000	92.261	101.9955
16500.000000	93.169	84.3403
16750.000000	94.681	63.2608
17000.000000	96.570	35.4406
17250.000000	98.124	-2.9023
17500.000000	98.498	-51.7468
17750.000000	97.253	-104.7031
18000.000000	94.462	-154.7375
18250.000000	90.372	162.2665
18500.000000	85.243	128.8411
18750.000000	79.412	105.4995
19000.000000	73.461	88.9294
19250.000000	68.638	69.7032
19500.000000	66.137	36.8764
19750.000000	65.008	-7.9893
20000.000000	64.360	-39.8935
