* Measurement data measured by REW V5.20.13
* Source: USB-C to 3.5mm Headphone Jack Adapter, USB-C to 3.5mm Headphone Jack Adapter, 0, volume: 0.490
* Format: 256k Log Swept Sine, 1 sweep at -12.0 dBFS with no timing reference
* Dated: 2022. 11. 13 ¿ÀÈÄ 12:28:49
* REW Settings:
*  C-weighting compensation: Off
*  Target level: 75.0 dB
* Note: 
* Measurement: R
* Smoothing: 1/24 octave
* Frequency Step: 1/48 octave
* Start Frequency: 20.300 Hz
*
* Freq(Hz)	SPL(dB)	Phase(degrees)
20.299999	97.254	70.2274
20.600000	97.381	69.6384
20.900000	97.606	68.5178
21.200001	97.747	67.3067
21.400000	97.795	66.5464
21.799999	97.818	65.2961
22.000000	97.812	64.8648
22.400000	97.804	64.4096
22.700001	97.828	64.2909
23.000000	97.893	64.1625
23.299999	97.986	63.8536
23.600000	98.086	63.2828
24.000000	98.192	62.1356
24.299999	98.224	61.1575
24.700001	98.199	60.0540
25.000000	98.155	59.6225
25.400000	98.124	59.7099
25.799999	98.204	60.3134
26.200001	98.428	60.8748
26.500000	98.663	60.9531
26.900000	99.011	60.4372
27.200001	99.263	59.6319
27.600000	99.567	58.1487
28.000000	99.827	56.3129
28.500000	100.063	53.5779
29.000000	100.142	50.6133
29.500000	100.032	48.1347
30.000000	99.810	46.9803
30.400000	99.660	47.1006
30.700001	99.611	47.5675
31.100000	99.637	48.2402
31.500000	99.727	48.6707
32.000000	99.863	48.8236
32.500000	100.001	48.7686
33.000000	100.156	48.5548
33.500000	100.326	48.0437
34.000000	100.481	47.2186
34.500000	100.606	46.2171
35.000000	100.707	45.1301
35.500000	100.781	44.0125
36.000000	100.830	43.0016
36.500000	100.880	42.2225
37.000000	100.964	41.5667
37.500000	101.077	40.7728
38.200001	101.209	39.3517
38.700001	101.266	38.4172
39.500000	101.371	37.2458
40.000000	101.447	36.4419
40.599998	101.506	35.4102
41.200001	101.536	34.6366
41.799999	101.592	34.0864
42.500000	101.690	33.2814
43.099998	101.751	32.4482
43.700001	101.799	31.7458
44.400002	101.881	31.0127
45.000000	101.963	30.2244
45.500000	102.018	29.4803
46.200001	102.076	28.4833
46.799999	102.123	27.6960
47.500000	102.174	26.8233
48.200001	102.228	26.0628
48.700001	102.280	25.5554
49.400002	102.367	24.7351
50.000000	102.428	23.9149
50.799999	102.481	22.8859
51.500000	102.528	22.1357
52.200001	102.588	21.4061
53.000000	102.659	20.5304
53.799999	102.725	19.6447
54.500000	102.779	18.8549
55.200001	102.826	18.0629
56.000000	102.871	17.1543
57.000000	102.903	16.0039
58.000000	102.912	15.0701
59.000000	102.953	14.2574
60.000000	103.009	13.2370
60.799999	103.047	12.3534
61.500000	103.083	11.5638
62.200001	103.119	10.7562
63.000000	103.158	9.8615
64.000000	103.213	8.7717
65.000000	103.259	7.6612
66.000000	103.287	6.6580
67.000000	103.316	5.7599
68.000000	103.346	4.8615
69.000000	103.372	3.9392
70.000000	103.393	2.9781
71.000000	103.407	2.0096
72.000000	103.421	1.0622
73.000000	103.435	0.1317
74.000000	103.450	-0.7567
75.000000	103.470	-1.6249
76.199997	103.495	-2.6960
77.500000	103.515	-3.9012
78.800003	103.519	-5.0551
80.000000	103.528	-6.0250
81.199997	103.543	-6.9817
82.500000	103.559	-8.0069
83.800003	103.568	-9.0290
85.000000	103.570	-9.9623
86.199997	103.565	-10.9037
87.500000	103.552	-11.8604
88.500000	103.551	-12.5413
90.000000	103.568	-13.6361
91.199997	103.577	-14.5676
92.500000	103.582	-15.5340
93.800003	103.585	-16.4626
95.000000	103.587	-17.3095
96.199997	103.586	-18.1432
97.500000	103.582	-19.0293
98.800003	103.578	-19.9087
100.000000	103.572	-20.7125
101.500000	103.563	-21.7162
103.000000	103.549	-22.7163
104.400002	103.538	-23.6406
106.000000	103.528	-24.7036
107.500000	103.518	-25.6853
109.000000	103.507	-26.6351
110.599998	103.492	-27.6434
112.000000	103.475	-28.5034
113.800003	103.456	-29.5690
115.000000	103.446	-30.2505
117.199997	103.429	-31.3829
118.000000	103.425	-31.7707
120.599998	103.411	-33.1880
122.000000	103.381	-34.0723
124.099998	103.326	-35.3172
125.000000	103.306	-35.8194
126.500000	103.281	-36.6176
128.000000	103.263	-37.3849
131.500000	103.208	-39.1796
132.000000	103.198	-39.4162
134.000000	103.167	-40.3253
136.000000	103.142	-41.2715
138.000000	103.099	-42.2266
140.000000	103.050	-43.0699
143.000000	103.017	-44.4206
145.000000	102.985	-45.4202
147.500000	102.930	-46.4360
150.000000	102.886	-47.4198
152.500000	102.816	-48.4877
155.000000	102.726	-49.2651
157.500000	102.696	-49.7090
160.000000	102.709	-50.3035
162.500000	102.722	-51.1425
165.000000	102.710	-52.1506
167.500000	102.702	-53.0675
170.000000	102.712	-53.9727
172.500000	102.709	-54.9298
175.000000	102.689	-55.9322
177.500000	102.668	-56.9736
180.000000	102.650	-58.0251
182.500000	102.625	-59.0457
185.000000	102.595	-60.0108
187.500000	102.566	-60.9086
190.000000	102.537	-61.7197
192.500000	102.500	-62.4950
195.000000	102.454	-63.3000
197.500000	102.411	-64.1420
200.000000	102.377	-64.9865
203.000000	102.348	-65.9456
206.000000	102.328	-66.8289
209.000000	102.308	-67.5902
212.000000	102.263	-68.3223
214.000000	102.216	-68.8661
218.000000	102.144	-70.0872
220.000000	102.133	-70.6742
224.000000	102.118	-71.6900
227.000000	102.088	-72.4356
230.000000	102.052	-73.2343
233.000000	102.021	-74.0080
236.000000	102.001	-74.7086
240.000000	101.977	-75.6236
243.000000	101.937	-76.3460
247.000000	101.878	-77.2797
250.000000	101.851	-77.9269
254.000000	101.823	-78.7549
258.000000	101.791	-79.6052
262.000000	101.759	-80.4461
265.000000	101.738	-81.0661
269.000000	101.709	-81.8821
272.000000	101.689	-82.4645
276.000000	101.663	-83.2023
280.000000	101.640	-83.9366
285.000000	101.607	-84.9330
290.000000	101.581	-85.8631
295.000000	101.568	-86.7771
300.000000	101.578	-87.6019
304.000000	101.566	-88.5061
307.000000	101.503	-89.2296
311.000000	101.391	-89.6922
315.000000	101.361	-89.5172
320.000000	101.397	-89.6633
325.000000	101.430	-90.5405
330.000000	101.434	-91.3969
335.000000	101.426	-92.4124
340.000000	101.425	-93.4680
345.000000	101.420	-94.4411
350.000000	101.414	-95.2683
355.000000	101.402	-95.9377
360.000000	101.384	-96.5545
365.000000	101.365	-97.1969
370.000000	101.350	-97.8490
375.000000	101.340	-98.4801
382.000000	101.320	-99.3369
387.000000	101.306	-99.9476
395.000000	101.288	-100.8746
400.000000	101.278	-101.4432
406.000000	101.270	-102.1081
412.000000	101.259	-102.7434
418.000000	101.246	-103.3627
425.000000	101.230	-104.0450
431.000000	101.221	-104.5467
437.000000	101.221	-105.1148
444.000000	101.228	-105.9466
450.000000	101.232	-106.5263
455.000000	101.252	-106.9696
462.000000	101.251	-107.3633
468.000000	101.213	-107.6461
475.000000	101.181	-108.4454
482.000000	101.196	-109.2678
487.000000	101.199	-109.6209
494.000000	101.190	-110.2007
500.000000	101.187	-110.6626
508.000000	101.190	-111.2627
515.000000	101.188	-111.7621
522.000000	101.187	-112.2179
530.000000	101.190	-112.7761
538.000000	101.183	-113.3052
545.000000	101.183	-113.7391
552.000000	101.184	-114.1602
560.000000	101.188	-114.6292
570.000000	101.184	-115.2260
580.000000	101.179	-115.7461
590.000000	101.179	-116.2470
600.000000	101.180	-116.7441
608.000000	101.180	-117.1097
615.000000	101.179	-117.4110
622.000000	101.177	-117.7049
630.000000	101.175	-118.0271
640.000000	101.173	-118.4079
650.000000	101.174	-118.7721
660.000000	101.176	-119.1242
670.000000	101.180	-119.4516
680.000000	101.182	-119.7655
690.000000	101.183	-120.0633
700.000000	101.184	-120.3299
710.000000	101.188	-120.5600
720.000000	101.193	-120.7716
730.000000	101.198	-120.9707
740.000000	101.206	-121.1482
750.000000	101.215	-121.3131
762.000000	101.226	-121.4907
775.000000	101.243	-121.6562
788.000000	101.258	-121.7852
800.000000	101.273	-121.8888
812.000000	101.294	-121.9911
825.000000	101.324	-122.0797
838.000000	101.354	-122.1545
850.000000	101.383	-122.2170
862.000000	101.418	-122.2647
875.000000	101.459	-122.2973
885.000000	101.493	-122.3216
900.000000	101.550	-122.3648
912.000000	101.599	-122.4020
925.000000	101.655	-122.4596
938.000000	101.715	-122.5314
950.000000	101.772	-122.6028
962.000000	101.833	-122.6869
975.000000	101.901	-122.7933
988.000000	101.971	-122.9202
1000.000000	102.037	-123.0559
1015.000000	102.120	-123.2547
1030.000000	102.205	-123.4825
1044.000000	102.284	-123.7116
1060.000000	102.373	-124.0135
1075.000000	102.454	-124.3366
1090.000000	102.538	-124.6834
1106.000000	102.632	-125.0668
1120.000000	102.713	-125.4254
1138.000000	102.813	-125.9182
1150.000000	102.879	-126.2557
1172.000000	102.992	-126.8984
1180.000000	103.031	-127.1431
1206.000000	103.150	-127.9400
1220.000000	103.209	-128.3647
1241.000000	103.292	-129.0023
1250.000000	103.325	-129.2744
1265.000000	103.379	-129.7247
1280.000000	103.428	-130.1682
1315.000000	103.531	-131.1533
1320.000000	103.545	-131.2878
1340.000000	103.595	-131.8091
1360.000000	103.638	-132.3060
1380.000000	103.682	-132.7840
1400.000000	103.727	-133.2500
1430.000000	103.791	-133.9047
1450.000000	103.832	-134.3042
1475.000000	103.880	-134.7648
1500.000000	103.929	-135.1764
1525.000000	103.977	-135.5475
1550.000000	104.027	-135.8828
1575.000000	104.080	-136.1869
1600.000000	104.135	-136.4599
1625.000000	104.194	-136.7138
1650.000000	104.257	-136.9487
1675.000000	104.325	-137.1722
1700.000000	104.395	-137.3988
1725.000000	104.467	-137.6328
1750.000000	104.537	-137.8662
1775.000000	104.609	-138.0770
1800.000000	104.685	-138.2577
1825.000000	104.769	-138.4284
1850.000000	104.862	-138.6076
1875.000000	104.961	-138.8092
1900.000000	105.067	-139.0412
1925.000000	105.178	-139.3076
1950.000000	105.293	-139.6109
1975.000000	105.413	-139.9589
2000.000000	105.536	-140.3577
2030.000000	105.687	-140.9087
2060.000000	105.840	-141.5493
2090.000000	105.994	-142.2827
2120.000000	106.145	-143.1086
2140.000000	106.244	-143.7137
2180.000000	106.432	-145.0525
2200.000000	106.519	-145.7820
2240.000000	106.676	-147.3502
2270.000000	106.776	-148.6100
2300.000000	106.861	-149.9227
2330.000000	106.929	-151.2692
2360.000000	106.979	-152.6283
2400.000000	107.019	-154.4306
2430.000000	107.030	-155.7515
2470.000000	107.023	-157.4445
2500.000000	107.003	-158.6490
2540.000000	106.960	-160.1457
2580.000000	106.903	-161.5044
2620.000000	106.838	-162.7196
2650.000000	106.786	-163.5403
2690.000000	106.716	-164.5195
2720.000000	106.664	-165.1724
2760.000000	106.600	-165.9447
2800.000000	106.542	-166.6155
2850.000000	106.482	-167.3302
2900.000000	106.439	-167.9364
2950.000000	106.415	-168.4584
3000.000000	106.414	-168.9262
3040.000000	106.431	-169.2917
3070.000000	106.454	-169.5816
3110.000000	106.498	-170.0137
3150.000000	106.551	-170.5137
3200.000000	106.624	-171.2400
3250.000000	106.699	-172.0617
3300.000000	106.775	-172.9565
3350.000000	106.853	-173.9218
3400.000000	106.934	-174.9573
3450.000000	107.020	-176.0768
3500.000000	107.110	-177.2891
3550.000000	107.197	-178.5941
3600.000000	107.277	-179.9973
3650.000000	107.347	178.4988
3700.000000	107.404	176.9002
3750.000000	107.443	175.2162
3820.000000	107.461	172.7436
3870.000000	107.441	170.9207
3950.000000	107.342	168.0013
4000.000000	107.241	166.2509
4060.000000	107.082	164.3004
4120.000000	106.889	162.5745
4180.000000	106.673	161.1318
4250.000000	106.405	159.8594
4310.000000	106.173	159.1417
4370.000000	105.949	158.7773
4440.000000	105.726	158.7758
4500.000000	105.597	159.0694
4550.000000	105.553	159.4267
4620.000000	105.615	159.8234
4680.000000	105.783	159.6805
4750.000000	106.066	158.3777
4820.000000	106.316	155.4557
4870.000000	106.386	152.4821
4940.000000	106.252	147.7804
5000.000000	105.915	144.0477
5080.000000	105.237	140.4467
5150.000000	104.549	138.8122
5220.000000	103.868	138.3831
5300.000000	103.157	138.9492
5380.000000	102.542	140.2405
5450.000000	102.078	141.7377
5520.000000	101.676	143.4567
5600.000000	101.281	145.6169
5700.000000	100.874	148.5449
5800.000000	100.553	151.6976
5900.000000	100.315	155.0624
6000.000000	100.159	158.6181
6080.000000	100.097	161.5744
6150.000000	100.094	164.2163
6220.000000	100.141	166.8780
6300.000000	100.263	169.8792
6400.000000	100.512	173.4214
6500.000000	100.856	176.5620
6600.000000	101.277	179.1606
6700.000000	101.757	-178.8932
6800.000000	102.279	-177.7047
6900.000000	102.826	-177.3880
7000.000000	103.355	-178.0013
7100.000000	103.810	-179.4956
7200.000000	104.139	178.2736
7300.000000	104.303	175.5974
7400.000000	104.288	172.9239
7500.000000	104.117	170.7028
7620.000000	103.781	168.9883
7750.000000	103.336	168.4268
7880.000000	102.819	169.1783
8000.000000	102.351	170.8649
8120.000000	101.959	173.2455
8250.000000	101.652	176.2982
8380.000000	101.482	179.5347
8500.000000	101.454	-177.5961
8620.000000	101.546	-175.1289
8750.000000	101.767	-173.2848
8850.000000	102.008	-172.7609
9000.000000	102.407	-174.0669
9120.000000	102.625	-177.2336
9250.000000	102.616	177.6813
9380.000000	102.295	171.5150
9500.000000	101.653	165.6651
9620.000000	100.683	160.8426
9750.000000	99.380	157.5918
9880.000000	97.967	156.4310
10000.000000	96.664	156.9124
10150.000000	95.122	159.0938
10300.000000	93.719	162.5321
10440.000000	92.550	166.5361
10600.000000	91.386	171.7639
10750.000000	90.466	177.0762
10900.000000	89.709	-177.4059
11060.000000	89.074	-171.5124
11200.000000	88.648	-166.4687
11380.000000	88.245	-160.1337
11500.000000	88.059	-155.9344
11720.000000	87.913	-148.1865
11800.000000	87.934	-145.3781
12060.000000	88.302	-136.7259
12200.000000	88.668	-132.7595
12410.000000	89.334	-128.2318
12500.000000	89.635	-126.8415
12650.000000	90.123	-125.2008
12800.000000	90.570	-124.2237
13150.000000	91.447	-123.2104
13200.000000	91.562	-123.1280
13400.000000	92.030	-122.9192
13600.000000	92.544	-123.1169
13800.000000	93.100	-124.2165
14000.000000	93.612	-126.5627
14300.000000	94.133	-131.5040
14500.000000	94.353	-134.9938
14750.000000	94.576	-139.3973
15000.000000	94.821	-143.7374
15250.000000	95.275	-147.9469
15500.000000	96.252	-152.9310
15750.000000	97.823	-161.1068
16000.000000	99.683	-174.5600
16250.000000	101.667	166.4536
16500.000000	103.801	141.3324
16750.000000	105.836	107.5923
17000.000000	107.209	63.7618
17250.000000	107.570	12.2131
17500.000000	106.882	-43.7030
17750.000000	105.060	-100.5932
18000.000000	102.068	-153.3238
18250.000000	98.255	160.5082
18500.000000	94.236	118.1896
18750.000000	90.485	75.2901
19000.000000	87.068	28.2658
19250.000000	83.744	-25.0764
19500.000000	80.220	-85.1243
19750.000000	76.391	-145.3784
20000.000000	73.286	177.3306
