* Measurement data measured by REW V5.20.13
* Source: EXCL: Microphone(High Definition Audio Device), MICROPHONE (마스), R, volume: 1.000
* Format: 256k Log Swept Sine, 1 sweep at -12.0 dBFS with no timing reference
* Dated: 2023. 2. 19 오후 8:39:08
* REW Settings:
*  C-weighting compensation: Off
*  Target level: 75.0 dB
* Note: 
* Measurement: R
* Smoothing: 1/24 octave
* Frequency Step: 1/48 octave
* Start Frequency: 20.300 Hz
*
* Freq(Hz)	SPL(dB)	Phase(degrees)
20.299999	103.569	18.9272
20.600000	103.585	18.8122
20.900000	103.615	18.6133
21.200001	103.638	18.4395
21.400000	103.651	18.3314
21.799999	103.672	18.1076
22.000000	103.682	17.9824
22.400000	103.699	17.7021
22.700001	103.711	17.4714
23.000000	103.720	17.2308
23.299999	103.728	16.9880
23.600000	103.735	16.7472
24.000000	103.749	16.4320
24.299999	103.764	16.1980
24.700001	103.789	15.8816
25.000000	103.811	15.6348
25.400000	103.840	15.2929
25.799999	103.866	14.9542
26.200001	103.888	14.6468
26.500000	103.902	14.4470
26.900000	103.920	14.2185
27.200001	103.933	14.0645
27.600000	103.950	13.8657
28.000000	103.966	13.6654
28.500000	103.981	13.4225
29.000000	103.990	13.2059
29.500000	103.997	13.0021
30.000000	104.005	12.7666
30.400000	104.010	12.5438
30.700001	104.011	12.3674
31.100000	104.010	12.1419
31.500000	104.007	11.9367
32.000000	104.009	11.6896
32.500000	104.016	11.4140
33.000000	104.024	11.1016
33.500000	104.033	10.7919
34.000000	104.045	10.5247
34.500000	104.062	10.2884
35.000000	104.083	10.0470
35.500000	104.103	9.7921
36.000000	104.116	9.5525
36.500000	104.126	9.3572
37.000000	104.135	9.2028
37.500000	104.146	9.0583
38.200001	104.157	8.8388
38.700001	104.162	8.6795
39.500000	104.169	8.4145
40.000000	104.172	8.2138
40.599998	104.170	7.9436
41.200001	104.162	7.6931
41.799999	104.159	7.4826
42.500000	104.165	7.2405
43.099998	104.175	7.0085
43.700001	104.183	6.7834
44.400002	104.191	6.5570
45.000000	104.200	6.3752
45.500000	104.209	6.2167
46.200001	104.219	5.9952
46.799999	104.225	5.8311
47.500000	104.231	5.6741
48.200001	104.240	5.5153
48.700001	104.247	5.3836
49.400002	104.254	5.1846
50.000000	104.258	5.0239
50.799999	104.269	4.8279
51.500000	104.281	4.6439
52.200001	104.290	4.4337
53.000000	104.294	4.1973
53.799999	104.296	3.9944
54.500000	104.298	3.8264
55.200001	104.301	3.6627
56.000000	104.305	3.4911
57.000000	104.309	3.2734
58.000000	104.311	3.0334
59.000000	104.306	2.8347
60.000000	104.306	2.6615
60.799999	104.310	2.4829
61.500000	104.312	2.3109
62.200001	104.310	2.1592
63.000000	104.310	2.0132
64.000000	104.317	1.8190
65.000000	104.321	1.5929
66.000000	104.319	1.3764
67.000000	104.317	1.1842
68.000000	104.314	1.0079
69.000000	104.313	0.8531
70.000000	104.314	0.6979
71.000000	104.316	0.5187
72.000000	104.314	0.3331
73.000000	104.309	0.1755
74.000000	104.308	0.0387
75.000000	104.311	-0.1213
76.199997	104.312	-0.3425
77.500000	104.308	-0.5593
78.800003	104.303	-0.7368
80.000000	104.299	-0.8847
81.199997	104.297	-1.0516
82.500000	104.295	-1.2393
83.800003	104.291	-1.3984
85.000000	104.290	-1.5326
86.199997	104.292	-1.6876
87.500000	104.288	-1.8793
88.500000	104.284	-2.0151
90.000000	104.281	-2.2193
91.199997	104.276	-2.3769
92.500000	104.274	-2.5218
93.800003	104.277	-2.6838
95.000000	104.277	-2.8444
96.199997	104.275	-2.9904
97.500000	104.275	-3.1465
98.800003	104.272	-3.2945
100.000000	104.268	-3.4129
101.500000	104.263	-3.5664
103.000000	104.257	-3.7450
104.400002	104.247	-3.9175
106.000000	104.238	-4.0869
107.500000	104.233	-4.2372
109.000000	104.232	-4.3742
110.599998	104.230	-4.5204
112.000000	104.222	-4.6299
113.800003	104.215	-4.7758
115.000000	104.212	-4.9106
117.199997	104.205	-5.2212
118.000000	104.201	-5.3322
120.599998	104.188	-5.5844
122.000000	104.187	-5.6752
124.099998	104.183	-5.8563
125.000000	104.180	-5.9295
126.500000	104.176	-6.0397
128.000000	104.174	-6.1573
131.500000	104.163	-6.4759
132.000000	104.161	-6.5238
134.000000	104.149	-6.7051
136.000000	104.140	-6.8678
138.000000	104.133	-7.0271
140.000000	104.126	-7.1672
143.000000	104.111	-7.3862
145.000000	104.096	-7.5426
147.500000	104.082	-7.7609
150.000000	104.069	-7.9675
152.500000	104.055	-8.1324
155.000000	104.038	-8.2882
157.500000	104.022	-8.4563
160.000000	104.008	-8.6268
162.500000	103.993	-8.7718
165.000000	103.974	-8.9109
167.500000	103.950	-9.0704
170.000000	103.926	-9.2457
172.500000	103.904	-9.4149
175.000000	103.879	-9.5542
177.500000	103.852	-9.6865
180.000000	103.820	-9.8233
182.500000	103.785	-9.9368
185.000000	103.751	-10.0383
187.500000	103.718	-10.1321
190.000000	103.687	-10.2120
192.500000	103.652	-10.2937
195.000000	103.607	-10.3537
197.500000	103.556	-10.3734
200.000000	103.502	-10.3563
203.000000	103.431	-10.2812
206.000000	103.353	-10.1152
209.000000	103.265	-9.8048
212.000000	103.160	-9.2099
214.000000	103.086	-8.5967
218.000000	102.973	-6.6888
220.000000	102.976	-5.3196
224.000000	103.239	-2.1901
227.000000	103.685	-0.6639
230.000000	104.193	-0.9057
233.000000	104.576	-2.7147
236.000000	104.763	-5.0932
240.000000	104.784	-7.8428
243.000000	104.720	-9.3184
247.000000	104.610	-10.6526
250.000000	104.526	-11.3367
254.000000	104.422	-12.0158
258.000000	104.330	-12.5385
262.000000	104.253	-12.9549
265.000000	104.202	-13.2120
269.000000	104.141	-13.5088
272.000000	104.100	-13.7043
276.000000	104.053	-13.9270
280.000000	104.013	-14.1139
285.000000	103.963	-14.3165
290.000000	103.915	-14.5508
295.000000	103.868	-14.7736
300.000000	103.826	-14.9702
304.000000	103.793	-15.1244
307.000000	103.769	-15.2316
311.000000	103.739	-15.3593
315.000000	103.714	-15.4695
320.000000	103.685	-15.5975
325.000000	103.655	-15.7297
330.000000	103.619	-15.8471
335.000000	103.586	-15.9633
340.000000	103.559	-16.0641
345.000000	103.530	-16.1702
350.000000	103.495	-16.2791
355.000000	103.460	-16.3847
360.000000	103.428	-16.4913
365.000000	103.395	-16.6082
370.000000	103.360	-16.7243
375.000000	103.324	-16.8131
382.000000	103.278	-16.8858
387.000000	103.244	-16.9385
395.000000	103.188	-17.0277
400.000000	103.151	-17.0851
406.000000	103.108	-17.1628
412.000000	103.066	-17.2165
418.000000	103.021	-17.2451
425.000000	102.968	-17.2805
431.000000	102.926	-17.3103
437.000000	102.888	-17.3098
444.000000	102.845	-17.3168
450.000000	102.812	-17.3132
455.000000	102.783	-17.2793
462.000000	102.740	-17.2365
468.000000	102.704	-17.2062
475.000000	102.667	-17.1491
482.000000	102.633	-17.0904
487.000000	102.613	-17.0399
494.000000	102.586	-16.9604
500.000000	102.561	-16.9203
508.000000	102.526	-16.8992
515.000000	102.494	-16.8603
522.000000	102.463	-16.8047
530.000000	102.425	-16.7381
538.000000	102.382	-16.6496
545.000000	102.346	-16.5616
552.000000	102.312	-16.4695
560.000000	102.275	-16.3418
570.000000	102.230	-16.1502
580.000000	102.187	-15.9529
590.000000	102.146	-15.7407
600.000000	102.101	-15.4982
608.000000	102.065	-15.2854
615.000000	102.036	-15.0969
622.000000	102.010	-14.9055
630.000000	101.984	-14.6810
640.000000	101.953	-14.3963
650.000000	101.920	-14.1095
660.000000	101.884	-13.8093
670.000000	101.852	-13.4993
680.000000	101.825	-13.1720
690.000000	101.799	-12.8313
700.000000	101.775	-12.4883
710.000000	101.750	-12.1205
720.000000	101.731	-11.7337
730.000000	101.718	-11.3452
740.000000	101.701	-10.9653
750.000000	101.690	-10.5753
762.000000	101.682	-10.0761
775.000000	101.678	-9.5150
788.000000	101.679	-8.9518
800.000000	101.679	-8.4441
812.000000	101.687	-7.9455
825.000000	101.707	-7.3897
838.000000	101.732	-6.8292
850.000000	101.757	-6.3231
862.000000	101.787	-5.8250
875.000000	101.827	-5.2865
885.000000	101.861	-4.9009
900.000000	101.918	-4.3555
912.000000	101.970	-3.9281
925.000000	102.032	-3.4794
938.000000	102.098	-3.0464
950.000000	102.162	-2.6877
962.000000	102.231	-2.3784
975.000000	102.307	-2.0794
988.000000	102.384	-1.8122
1000.000000	102.461	-1.5959
1015.000000	102.561	-1.3771
1030.000000	102.658	-1.2057
1044.000000	102.748	-1.0991
1060.000000	102.852	-1.0374
1075.000000	102.949	-1.0207
1090.000000	103.045	-1.0539
1106.000000	103.152	-1.1360
1120.000000	103.245	-1.2348
1138.000000	103.358	-1.4094
1150.000000	103.431	-1.5490
1172.000000	103.561	-1.8368
1180.000000	103.605	-1.9564
1206.000000	103.742	-2.3970
1220.000000	103.812	-2.6516
1241.000000	103.911	-3.0299
1250.000000	103.950	-3.1876
1265.000000	104.012	-3.4569
1280.000000	104.072	-3.7369
1315.000000	104.196	-4.3985
1320.000000	104.213	-4.4912
1340.000000	104.278	-4.8435
1360.000000	104.333	-5.1913
1380.000000	104.385	-5.5398
1400.000000	104.438	-5.8881
1430.000000	104.517	-6.4031
1450.000000	104.568	-6.7254
1475.000000	104.628	-7.1190
1500.000000	104.687	-7.5079
1525.000000	104.743	-7.8821
1550.000000	104.796	-8.2415
1575.000000	104.848	-8.5920
1600.000000	104.899	-8.9418
1625.000000	104.949	-9.2970
1650.000000	104.998	-9.6492
1675.000000	105.044	-9.9832
1700.000000	105.090	-10.3158
1725.000000	105.134	-10.6689
1750.000000	105.175	-11.0378
1775.000000	105.213	-11.4033
1800.000000	105.251	-11.7640
1825.000000	105.288	-12.1337
1850.000000	105.323	-12.5042
1875.000000	105.356	-12.8739
1900.000000	105.387	-13.2551
1925.000000	105.415	-13.6481
1950.000000	105.441	-14.0443
1975.000000	105.465	-14.4406
2000.000000	105.487	-14.8411
2030.000000	105.510	-15.3316
2060.000000	105.528	-15.8255
2090.000000	105.543	-16.3211
2120.000000	105.554	-16.8108
2140.000000	105.560	-17.1355
2180.000000	105.564	-17.7744
2200.000000	105.563	-18.0932
2240.000000	105.556	-18.7348
2270.000000	105.546	-19.2014
2300.000000	105.532	-19.6439
2330.000000	105.513	-20.0690
2360.000000	105.490	-20.4893
2400.000000	105.457	-21.0326
2430.000000	105.430	-21.4155
2470.000000	105.390	-21.8945
2500.000000	105.357	-22.2383
2540.000000	105.311	-22.6611
2580.000000	105.265	-23.0474
2620.000000	105.214	-23.3888
2650.000000	105.175	-23.6134
2690.000000	105.121	-23.8817
2720.000000	105.080	-24.0598
2760.000000	105.025	-24.2634
2800.000000	104.969	-24.4328
2850.000000	104.900	-24.5872
2900.000000	104.832	-24.6715
2950.000000	104.766	-24.6933
3000.000000	104.705	-24.6697
3040.000000	104.662	-24.6290
3070.000000	104.630	-24.5844
3110.000000	104.589	-24.4994
3150.000000	104.550	-24.3837
3200.000000	104.505	-24.1863
3250.000000	104.464	-23.9345
3300.000000	104.428	-23.6205
3350.000000	104.399	-23.2109
3400.000000	104.386	-22.6840
3450.000000	104.403	-22.0543
3500.000000	104.464	-21.3832
3550.000000	104.567	-20.7981
3600.000000	104.702	-20.4098
3650.000000	104.855	-20.2606
3700.000000	105.013	-20.3575
3750.000000	105.165	-20.6692
3820.000000	105.359	-21.3897
3870.000000	105.479	-22.0769
3950.000000	105.636	-23.4451
4000.000000	105.713	-24.4482
4060.000000	105.783	-25.7915
4120.000000	105.823	-27.2659
4180.000000	105.827	-28.8305
4250.000000	105.787	-30.6877
4310.000000	105.718	-32.2683
4370.000000	105.618	-33.8367
4440.000000	105.468	-35.7122
4500.000000	105.304	-37.3895
4550.000000	105.134	-38.8071
4620.000000	104.845	-40.7256
4680.000000	104.551	-42.2226
4750.000000	104.164	-43.7342
4820.000000	103.732	-44.9528
4870.000000	103.400	-45.6191
4940.000000	102.908	-46.2373
5000.000000	102.469	-46.4595
5080.000000	101.874	-46.3072
5150.000000	101.356	-45.7680
5220.000000	100.849	-44.8767
5300.000000	100.292	-43.4742
5380.000000	99.765	-41.7469
5450.000000	99.327	-40.0248
5520.000000	98.911	-38.1213
5600.000000	98.460	-35.7339
5700.000000	97.939	-32.4224
5800.000000	97.471	-28.7689
5900.000000	97.066	-24.8570
6000.000000	96.724	-20.7576
6080.000000	96.496	-17.3836
6150.000000	96.330	-14.3834
6220.000000	96.196	-11.3448
6300.000000	96.082	-7.8361
6400.000000	96.001	-3.4586
6500.000000	95.985	0.7972
6600.000000	95.998	4.7718
6700.000000	95.982	8.8805
6800.000000	96.049	13.8237
6900.000000	96.330	18.8067
7000.000000	96.752	23.2147
7100.000000	97.259	27.1591
7200.000000	97.857	30.6982
7300.000000	98.560	33.7335
7400.000000	99.378	36.0753
7500.000000	100.318	37.4312
7620.000000	101.593	37.1246
7750.000000	102.995	33.3260
7880.000000	104.050	25.0449
8000.000000	104.409	14.1508
8120.000000	104.023	2.8300
8250.000000	102.884	-6.4803
8380.000000	101.347	-11.2666
8500.000000	99.876	-12.1897
8620.000000	98.516	-10.7422
8750.000000	97.228	-7.4227
8850.000000	96.377	-4.0640
9000.000000	95.323	1.7815
9120.000000	94.657	6.8947
9250.000000	94.098	12.6802
9380.000000	93.694	18.5832
9500.000000	93.459	24.0238
9620.000000	93.359	29.3468
9750.000000	93.406	34.8479
9880.000000	93.622	39.8915
10000.000000	93.978	43.8972
10150.000000	94.629	47.5405
10300.000000	95.463	48.8410
10440.000000	96.271	46.9467
10600.000000	96.914	40.3375
10750.000000	96.903	30.8165
10900.000000	96.118	21.1678
11060.000000	94.547	14.3056
11200.000000	92.827	12.3079
11380.000000	90.556	14.4013
11500.000000	89.154	17.8722
11720.000000	86.952	26.9214
11800.000000	86.278	30.7869
12060.000000	84.549	44.5310
12200.000000	83.919	52.2583
12410.000000	83.469	63.2610
12500.000000	83.504	67.1022
12650.000000	83.829	70.4853
12800.000000	84.090	67.6588
13150.000000	80.730	57.1157
13200.000000	79.726	59.6968
13400.000000	75.668	80.0883
13600.000000	73.467	104.9114
13800.000000	73.050	126.1935
14000.000000	73.197	143.7681
14300.000000	73.690	166.4827
14500.000000	74.156	-179.5753
14750.000000	74.960	-162.9495
15000.000000	76.142	-147.2208
15250.000000	77.828	-132.9221
15500.000000	80.166	-121.3107
15750.000000	83.130	-114.6404
16000.000000	86.102	-117.3242
16250.000000	87.878	-132.5872
16500.000000	87.633	-152.1554
16750.000000	85.777	-162.7744
17000.000000	83.496	-163.0160
17250.000000	81.642	-158.0421
17500.000000	80.346	-151.5302
17750.000000	79.388	-144.8461
18000.000000	78.575	-137.8619
18250.000000	77.905	-130.2696
18500.000000	77.498	-122.8194
18750.000000	77.320	-117.2852
19000.000000	77.079	-114.5937
19250.000000	76.450	-113.7424
19500.000000	75.290	-112.5805
19750.000000	73.785	-109.9345
20000.000000	72.671	-107.5890
