* Measurement data measured by REW V5.20.13
* Source: USB-C to 3.5mm Headphone Jack Adapter, USB-C to 3.5mm Headphone Jack Adapter, 0, volume: 0.490
* Format: 256k Log Swept Sine, 1 sweep at -12.0 dBFS with no timing reference
* Dated: 2022. 11. 13 ¿ÀÈÄ 12:22:27
* REW Settings:
*  C-weighting compensation: Off
*  Target level: 75.0 dB
* Note: 
* Measurement: R
* Smoothing: 1/24 octave
* Frequency Step: 1/48 octave
* Start Frequency: 20.300 Hz
*
* Freq(Hz)	SPL(dB)	Phase(degrees)
20.299999	104.551	-136.4899
20.600000	104.547	-137.2768
20.900000	104.531	-138.5713
21.200001	104.496	-139.5056
21.400000	104.473	-139.9473
21.799999	104.446	-140.6218
22.000000	104.444	-140.9515
22.400000	104.455	-141.6988
22.700001	104.462	-142.3311
23.000000	104.459	-142.9677
23.299999	104.452	-143.5380
23.600000	104.452	-144.0252
24.000000	104.481	-144.6026
24.299999	104.526	-145.0835
24.700001	104.603	-145.9039
25.000000	104.654	-146.6591
25.400000	104.695	-147.7441
25.799999	104.702	-148.7162
26.200001	104.697	-149.4334
26.500000	104.702	-149.8163
26.900000	104.733	-150.2320
27.200001	104.772	-150.5733
27.600000	104.830	-151.1538
28.000000	104.874	-151.8665
28.500000	104.892	-152.7837
29.000000	104.882	-153.5309
29.500000	104.871	-154.0669
30.000000	104.884	-154.5337
30.400000	104.909	-154.9834
30.700001	104.929	-155.3999
31.100000	104.946	-156.0453
31.500000	104.946	-156.7304
32.000000	104.926	-157.5187
32.500000	104.902	-158.1543
33.000000	104.895	-158.6828
33.500000	104.914	-159.2200
34.000000	104.946	-159.8510
34.500000	104.973	-160.5685
35.000000	104.988	-161.3067
35.500000	104.994	-161.9972
36.000000	104.996	-162.6115
36.500000	105.000	-163.1626
37.000000	105.009	-163.6874
37.500000	105.019	-164.2192
38.200001	105.028	-164.9967
38.700001	105.027	-165.5654
39.500000	105.011	-166.4658
40.000000	104.994	-167.0038
40.599998	104.970	-167.5970
41.200001	104.949	-168.1236
41.799999	104.941	-168.6245
42.500000	104.944	-169.2616
43.099998	104.947	-169.8732
43.700001	104.943	-170.4926
44.400002	104.932	-171.1595
45.000000	104.921	-171.6801
45.500000	104.912	-172.0927
46.200001	104.898	-172.6315
46.799999	104.887	-173.0488
47.500000	104.881	-173.5289
48.200001	104.876	-174.0567
48.700001	104.867	-174.4465
49.400002	104.849	-174.9546
50.000000	104.836	-175.3563
50.799999	104.826	-175.9100
51.500000	104.816	-176.4334
52.200001	104.802	-176.9706
53.000000	104.779	-177.5628
53.799999	104.753	-178.0814
54.500000	104.736	-178.4903
55.200001	104.725	-178.9177
56.000000	104.708	-179.4117
57.000000	104.692	-179.9594
58.000000	104.689	179.3624
59.000000	104.645	178.5536
60.000000	104.567	178.0254
60.799999	104.525	177.7526
61.500000	104.500	177.4604
62.200001	104.472	177.1201
63.000000	104.433	176.7553
64.000000	104.391	176.3378
65.000000	104.357	175.8908
66.000000	104.325	175.3773
67.000000	104.281	174.8331
68.000000	104.229	174.3815
69.000000	104.186	174.0100
70.000000	104.150	173.6008
71.000000	104.104	173.1799
72.000000	104.057	172.8607
73.000000	104.026	172.5345
74.000000	103.992	172.0960
75.000000	103.943	171.6830
76.199997	103.887	171.3070
77.500000	103.842	170.8663
78.800003	103.776	170.3489
80.000000	103.700	170.0638
81.199997	103.650	169.8329
82.500000	103.603	169.3808
83.800003	103.527	168.8709
85.000000	103.455	168.6163
86.199997	103.419	168.3823
87.500000	103.377	167.9415
88.500000	103.321	167.6407
90.000000	103.232	167.3768
91.199997	103.171	167.1694
92.500000	103.106	166.8636
93.800003	103.043	166.5314
95.000000	102.983	166.2155
96.199997	102.913	166.0291
97.500000	102.837	166.0382
98.800003	102.759	166.1726
100.000000	102.684	166.3242
101.500000	102.582	166.3416
103.000000	102.456	166.2723
104.400002	102.356	166.3644
106.000000	102.304	166.6429
107.500000	102.294	167.0272
109.000000	102.292	167.5512
110.599998	102.281	168.1760
112.000000	102.280	168.7045
113.800003	102.329	168.9395
115.000000	102.367	168.7067
117.199997	102.410	168.1895
118.000000	102.439	168.0761
120.599998	102.544	167.1629
122.000000	102.523	166.5921
124.099998	102.460	166.0134
125.000000	102.428	165.7538
126.500000	102.368	165.2831
128.000000	102.315	164.7632
131.500000	102.238	163.7317
132.000000	102.230	163.6710
134.000000	102.194	163.5457
136.000000	102.114	163.3539
138.000000	102.021	162.9272
140.000000	101.945	162.3451
143.000000	101.841	162.2222
145.000000	101.759	162.4047
147.500000	101.650	162.1537
150.000000	101.601	161.5762
152.500000	101.564	161.5288
155.000000	101.468	161.6768
157.500000	101.370	161.2041
160.000000	101.358	160.9174
162.500000	101.385	161.6504
165.000000	101.293	162.3771
167.500000	101.104	162.2378
170.000000	101.041	161.7920
172.500000	101.064	161.6928
175.000000	100.966	162.0453
177.500000	100.779	162.5944
180.000000	100.709	162.7586
182.500000	100.737	162.4730
185.000000	100.721	162.1598
187.500000	100.637	162.0264
190.000000	100.538	162.0190
192.500000	100.461	162.1279
195.000000	100.391	162.2866
197.500000	100.318	162.4265
200.000000	100.252	162.5509
203.000000	100.191	162.7773
206.000000	100.140	162.9930
209.000000	100.093	163.1162
212.000000	100.028	163.3604
214.000000	99.979	163.5182
218.000000	99.897	163.3999
220.000000	99.894	163.3568
224.000000	99.867	163.7876
227.000000	99.780	164.1140
230.000000	99.696	164.0838
233.000000	99.654	164.1683
236.000000	99.619	164.4462
240.000000	99.538	164.7020
243.000000	99.478	164.8699
247.000000	99.407	165.1407
250.000000	99.356	165.3068
254.000000	99.292	165.5270
258.000000	99.228	165.7764
262.000000	99.167	166.0508
265.000000	99.126	166.2860
269.000000	99.068	166.6288
272.000000	99.017	166.8474
276.000000	98.957	167.0714
280.000000	98.924	167.2891
285.000000	98.897	167.7783
290.000000	98.821	168.4010
295.000000	98.721	168.5408
300.000000	98.657	168.7937
304.000000	98.629	169.1456
307.000000	98.604	169.4591
311.000000	98.559	169.9390
315.000000	98.558	170.4047
320.000000	98.638	170.6371
325.000000	98.611	170.2032
330.000000	98.414	170.1963
335.000000	98.363	171.4312
340.000000	98.394	172.2180
345.000000	98.297	172.5628
350.000000	98.192	172.8138
355.000000	98.139	172.2276
360.000000	98.222	171.9915
365.000000	98.265	173.5121
370.000000	98.138	174.5428
375.000000	98.068	174.9653
382.000000	97.984	175.7206
387.000000	97.960	175.7354
395.000000	97.921	176.5201
400.000000	97.874	177.0051
406.000000	97.828	177.5725
412.000000	97.822	178.1483
418.000000	97.825	178.4342
425.000000	97.771	178.5511
431.000000	97.674	178.8784
437.000000	97.585	179.6533
444.000000	97.557	-179.3405
450.000000	97.556	-178.6634
455.000000	97.551	-178.1867
462.000000	97.542	-177.6613
468.000000	97.539	-177.2533
475.000000	97.519	-176.7282
482.000000	97.501	-176.1510
487.000000	97.505	-175.6344
494.000000	97.510	-174.8515
500.000000	97.501	-174.2744
508.000000	97.467	-173.6275
515.000000	97.442	-173.0934
522.000000	97.424	-172.6134
530.000000	97.406	-172.1205
538.000000	97.387	-171.5779
545.000000	97.368	-171.0362
552.000000	97.354	-170.4533
560.000000	97.344	-169.7940
570.000000	97.332	-168.9756
580.000000	97.320	-168.1540
590.000000	97.314	-167.3526
600.000000	97.315	-166.5642
608.000000	97.319	-165.9247
615.000000	97.321	-165.3431
622.000000	97.321	-164.7596
630.000000	97.322	-164.1057
640.000000	97.324	-163.2908
650.000000	97.329	-162.4857
660.000000	97.336	-161.6808
670.000000	97.339	-160.8784
680.000000	97.344	-160.1106
690.000000	97.359	-159.3296
700.000000	97.380	-158.5222
710.000000	97.396	-157.6865
720.000000	97.411	-156.8866
730.000000	97.432	-156.0999
740.000000	97.458	-155.2995
750.000000	97.485	-154.5139
762.000000	97.517	-153.5683
775.000000	97.553	-152.5417
788.000000	97.595	-151.5374
800.000000	97.638	-150.6095
812.000000	97.686	-149.6926
825.000000	97.742	-148.7159
838.000000	97.802	-147.7283
850.000000	97.863	-146.8434
862.000000	97.926	-145.9750
875.000000	97.999	-145.0472
885.000000	98.057	-144.3561
900.000000	98.148	-143.3645
912.000000	98.224	-142.5731
925.000000	98.313	-141.7414
938.000000	98.403	-140.9440
950.000000	98.487	-140.2195
962.000000	98.575	-139.5207
975.000000	98.673	-138.7926
988.000000	98.772	-138.0934
1000.000000	98.865	-137.4804
1015.000000	98.982	-136.7655
1030.000000	99.102	-136.0887
1044.000000	99.214	-135.4765
1060.000000	99.345	-134.8203
1075.000000	99.466	-134.2644
1090.000000	99.590	-133.7592
1106.000000	99.728	-133.2556
1120.000000	99.851	-132.8254
1138.000000	100.012	-132.3207
1150.000000	100.117	-132.0289
1172.000000	100.300	-131.6080
1180.000000	100.361	-131.4872
1206.000000	100.524	-131.0742
1220.000000	100.596	-130.7613
1241.000000	100.717	-130.1446
1250.000000	100.779	-129.8473
1265.000000	100.893	-129.3554
1280.000000	101.013	-128.9045
1315.000000	101.294	-128.0016
1320.000000	101.333	-127.8836
1340.000000	101.489	-127.4276
1360.000000	101.644	-127.0082
1380.000000	101.802	-126.6221
1400.000000	101.955	-126.2779
1430.000000	102.195	-125.7921
1450.000000	102.352	-125.4359
1475.000000	102.548	-125.0268
1500.000000	102.752	-124.6804
1525.000000	102.959	-124.3682
1550.000000	103.167	-124.0747
1575.000000	103.376	-123.8012
1600.000000	103.585	-123.6053
1625.000000	103.793	-123.4792
1650.000000	104.005	-123.3768
1675.000000	104.222	-123.3243
1700.000000	104.440	-123.3216
1725.000000	104.656	-123.3776
1750.000000	104.869	-123.4901
1775.000000	105.082	-123.6626
1800.000000	105.296	-123.9096
1825.000000	105.508	-124.2222
1850.000000	105.719	-124.5938
1875.000000	105.927	-125.0210
1900.000000	106.130	-125.5273
1925.000000	106.326	-126.1096
1950.000000	106.516	-126.7576
1975.000000	106.702	-127.4711
2000.000000	106.883	-128.2521
2030.000000	107.086	-129.2655
2060.000000	107.275	-130.3684
2090.000000	107.451	-131.5516
2120.000000	107.612	-132.7920
2140.000000	107.711	-133.6500
2180.000000	107.882	-135.4302
2200.000000	107.953	-136.3403
2240.000000	108.068	-138.1856
2270.000000	108.135	-139.5710
2300.000000	108.182	-140.9462
2330.000000	108.211	-142.3026
2360.000000	108.223	-143.6276
2400.000000	108.218	-145.3188
2430.000000	108.200	-146.5142
2470.000000	108.157	-148.0004
2500.000000	108.113	-149.0370
2540.000000	108.040	-150.3078
2580.000000	107.954	-151.4497
2620.000000	107.861	-152.4570
2650.000000	107.786	-153.1265
2690.000000	107.684	-153.9090
2720.000000	107.606	-154.4162
2760.000000	107.502	-154.9950
2800.000000	107.400	-155.4738
2850.000000	107.277	-155.9425
2900.000000	107.161	-156.2808
2950.000000	107.055	-156.5114
3000.000000	106.959	-156.6547
3040.000000	106.891	-156.7187
3070.000000	106.845	-156.7413
3110.000000	106.791	-156.7433
3150.000000	106.744	-156.7183
3200.000000	106.696	-156.6591
3250.000000	106.660	-156.5860
3300.000000	106.634	-156.5126
3350.000000	106.620	-156.4453
3400.000000	106.617	-156.3935
3450.000000	106.629	-156.3711
3500.000000	106.654	-156.3866
3550.000000	106.689	-156.4477
3600.000000	106.730	-156.5627
3650.000000	106.777	-156.7415
3700.000000	106.827	-156.9911
3750.000000	106.880	-157.3155
3820.000000	106.952	-157.8998
3870.000000	106.998	-158.4174
3950.000000	107.056	-159.4276
4000.000000	107.083	-160.1686
4060.000000	107.104	-161.1637
4120.000000	107.108	-162.2678
4180.000000	107.092	-163.4664
4250.000000	107.045	-164.9600
4310.000000	106.973	-166.2977
4370.000000	106.865	-167.6587
4440.000000	106.698	-169.2370
4500.000000	106.524	-170.5501
4550.000000	106.358	-171.5981
4620.000000	106.097	-172.9640
4680.000000	105.849	-174.0145
4750.000000	105.536	-175.0710
4820.000000	105.199	-175.9248
4870.000000	104.947	-176.4053
4940.000000	104.581	-176.8931
5000.000000	104.259	-177.1329
5080.000000	103.826	-177.1997
5150.000000	103.448	-177.0319
5220.000000	103.074	-176.6558
5300.000000	102.657	-175.9873
5380.000000	102.253	-175.0846
5450.000000	101.914	-174.1159
5520.000000	101.590	-172.9927
5600.000000	101.239	-171.5325
5700.000000	100.837	-169.4627
5800.000000	100.475	-167.1482
5900.000000	100.160	-164.5824
6000.000000	99.909	-161.7881
6080.000000	99.766	-159.5185
6150.000000	99.674	-157.5974
6220.000000	99.600	-155.7099
6300.000000	99.535	-153.5200
6400.000000	99.499	-150.6935
6500.000000	99.524	-147.7972
6600.000000	99.617	-144.8907
6700.000000	99.787	-142.0214
6800.000000	100.042	-139.2419
6900.000000	100.405	-136.6204
7000.000000	100.879	-134.2271
7100.000000	101.460	-132.1346
7200.000000	102.150	-130.4495
7300.000000	102.963	-129.3031
7400.000000	103.915	-128.9025
7500.000000	105.022	-129.5936
7620.000000	106.540	-132.6255
7750.000000	108.232	-140.0220
7880.000000	109.515	-152.9015
8000.000000	109.950	-168.5778
8120.000000	109.521	175.7516
8250.000000	108.311	162.6977
8380.000000	106.783	154.6846
8500.000000	105.426	150.6798
8620.000000	104.263	148.6743
8750.000000	103.257	147.6994
8850.000000	102.658	147.3065
9000.000000	102.020	146.6821
9120.000000	101.709	145.7111
9250.000000	101.529	143.7234
9380.000000	101.448	140.3246
9500.000000	101.376	135.6315
9620.000000	101.204	129.3978
9750.000000	100.791	121.2994
9880.000000	100.062	112.6761
10000.000000	99.099	105.1548
10150.000000	97.566	97.3146
10300.000000	95.790	91.7454
10440.000000	94.037	88.6432
10600.000000	92.045	87.2443
10750.000000	90.267	87.5281
10900.000000	88.612	88.8806
11060.000000	86.985	91.1347
11200.000000	85.665	93.5919
11380.000000	84.087	97.2634
11500.000000	83.085	100.0371
11720.000000	81.262	106.5419
11800.000000	80.587	109.9257
12060.000000	79.308	129.8808
12200.000000	80.831	143.5062
12410.000000	83.641	143.3201
12500.000000	83.992	136.0842
12650.000000	83.633	125.3068
12800.000000	82.914	119.8787
13150.000000	82.413	115.3508
13200.000000	82.507	114.6706
13400.000000	83.265	110.6108
13600.000000	84.595	102.8661
13800.000000	86.200	88.5782
14000.000000	87.341	65.3629
14300.000000	86.703	22.0434
14500.000000	84.764	-1.0318
14750.000000	81.756	-19.6984
15000.000000	79.092	-31.6721
15250.000000	77.127	-40.9042
15500.000000	75.885	-49.7095
15750.000000	75.330	-59.8104
16000.000000	75.338	-73.7349
16250.000000	75.483	-95.1884
16500.000000	74.871	-125.1674
16750.000000	72.828	-156.9446
17000.000000	69.377	177.9363
17250.000000	64.742	167.9046
17500.000000	60.039	171.7358
17750.000000	57.758	175.7039
18000.000000	57.744	169.2359
18250.000000	58.017	151.6732
18500.000000	57.931	126.2871
18750.000000	57.619	94.3086
19000.000000	57.142	55.1751
19250.000000	56.292	6.2350
19500.000000	54.831	-52.9759
19750.000000	52.747	-113.6934
20000.000000	51.036	-151.0907
