* Measurement data measured by REW V5.20.13
* Source: EXCL: Mic in at rear panel (Pink)(Realtek(R) Audio), MICROPHONE (마스), L, volume: 0.500
* Format: 256k Log Swept Sine, 1 sweep at -12.0 dBFS with no timing reference
* Dated: 2022. 10. 1 오전 11:28:08
* REW Settings:
*  C-weighting compensation: Off
*  Target level: 75.0 dB
* Note: 
* Measurement: R_Crystal
* Smoothing: 1/24 octave
* Frequency Step: 1/48 octave
* Start Frequency: 20.300 Hz
*
* Freq(Hz)	SPL(dB)	Phase(degrees)
20.299999	70.512	-152.2145
20.600000	70.520	-151.8678
20.900000	70.560	-151.3476
21.200001	70.652	-151.1643
21.400000	70.722	-151.3082
21.799999	70.834	-152.1170
22.000000	70.859	-152.6686
22.400000	70.839	-153.7336
22.700001	70.790	-154.2938
23.000000	70.750	-154.6105
23.299999	70.741	-154.8339
23.600000	70.760	-155.1280
24.000000	70.800	-155.7955
24.299999	70.809	-156.4560
24.700001	70.770	-157.2744
25.000000	70.717	-157.6198
25.400000	70.660	-157.6046
25.799999	70.677	-157.2658
26.200001	70.774	-157.0488
26.500000	70.869	-157.1665
26.900000	70.978	-157.7122
27.200001	71.023	-158.2723
27.600000	71.031	-158.9751
28.000000	71.008	-159.4568
28.500000	70.981	-159.8125
29.000000	70.963	-160.1647
29.500000	70.925	-160.5761
30.000000	70.861	-160.8369
30.400000	70.817	-160.8520
30.700001	70.804	-160.8019
31.100000	70.815	-160.7989
31.500000	70.846	-160.9811
32.000000	70.883	-161.4835
32.500000	70.900	-162.1466
33.000000	70.902	-162.8362
33.500000	70.896	-163.5207
34.000000	70.877	-164.1588
34.500000	70.845	-164.6448
35.000000	70.814	-164.9036
35.500000	70.803	-164.9686
36.000000	70.820	-164.9461
36.500000	70.857	-164.9254
37.000000	70.904	-164.9494
37.500000	70.950	-165.0189
38.200001	71.004	-165.1614
38.700001	71.033	-165.2939
39.500000	71.054	-165.5860
40.000000	71.047	-165.7703
40.599998	71.027	-165.9612
41.200001	71.000	-166.2435
41.799999	70.938	-166.6318
42.500000	70.816	-166.7755
43.099998	70.759	-166.4745
43.700001	70.800	-166.4619
44.400002	70.835	-167.4559
45.000000	70.727	-168.4712
45.500000	70.584	-168.6231
46.200001	70.499	-167.7895
46.799999	70.611	-167.1003
47.500000	70.831	-167.1958
48.200001	71.018	-167.9553
48.700001	71.119	-168.5956
49.400002	71.228	-169.4672
50.000000	71.293	-170.1985
50.799999	71.310	-171.0876
51.500000	71.250	-171.4646
52.200001	71.180	-171.2256
53.000000	71.170	-170.6543
53.799999	71.199	-170.4830
54.500000	71.190	-170.6242
55.200001	71.155	-170.7965
56.000000	71.110	-171.0240
57.000000	71.061	-171.3688
58.000000	71.040	-171.7968
59.000000	71.022	-172.3199
60.000000	71.006	-172.6336
60.799999	71.016	-172.7865
61.500000	71.028	-172.9127
62.200001	71.037	-172.9749
63.000000	71.053	-172.9925
64.000000	71.074	-173.1113
65.000000	71.073	-173.2670
66.000000	71.071	-173.3672
67.000000	71.078	-173.4994
68.000000	71.092	-173.6393
69.000000	71.120	-173.8437
70.000000	71.137	-174.1435
71.000000	71.129	-174.3908
72.000000	71.115	-174.4344
73.000000	71.124	-174.4704
74.000000	71.122	-174.7007
75.000000	71.090	-174.8463
76.199997	71.072	-174.8606
77.500000	71.079	-175.0184
78.800003	71.078	-175.3269
80.000000	71.060	-175.5421
81.199997	71.054	-175.6516
82.500000	71.059	-175.8051
83.800003	71.058	-176.0112
85.000000	71.051	-176.1587
86.199997	71.050	-176.3121
87.500000	71.041	-176.5346
88.500000	71.033	-176.6663
90.000000	71.039	-176.9006
91.199997	71.045	-177.1783
92.500000	71.048	-177.4523
93.800003	71.054	-177.6705
95.000000	71.057	-177.8434
96.199997	71.051	-177.9274
97.500000	71.049	-177.8641
98.800003	71.064	-177.7725
100.000000	71.084	-177.8194
101.500000	71.074	-178.0542
103.000000	71.035	-178.1913
104.400002	71.020	-178.2819
106.000000	71.019	-178.6112
107.500000	71.005	-178.9145
109.000000	70.993	-179.0667
110.599998	70.988	-179.0804
112.000000	70.997	-179.1453
113.800003	70.997	-179.4348
115.000000	71.003	-179.5759
117.199997	71.101	-179.7643
118.000000	71.162	-179.9154
120.599998	71.204	179.0505
122.000000	71.092	179.1515
124.099998	70.988	179.7046
125.000000	70.967	179.7645
126.500000	70.945	179.6320
128.000000	70.938	179.3972
131.500000	70.957	179.1104
132.000000	70.959	179.1085
134.000000	70.950	179.0460
136.000000	70.911	178.8793
138.000000	70.874	178.7205
140.000000	70.869	178.5161
143.000000	70.847	178.2919
145.000000	70.836	178.4878
147.500000	70.858	178.6475
150.000000	70.859	178.2793
152.500000	70.810	177.9363
155.000000	70.780	177.7261
157.500000	70.763	177.5358
160.000000	70.753	177.4023
162.500000	70.756	177.3228
165.000000	70.759	177.1575
167.500000	70.745	176.8658
170.000000	70.712	176.5744
172.500000	70.690	176.4130
175.000000	70.681	176.2909
177.500000	70.662	176.1766
180.000000	70.628	176.0853
182.500000	70.599	176.0445
185.000000	70.585	175.9830
187.500000	70.572	175.8483
190.000000	70.550	175.6471
192.500000	70.524	175.4590
195.000000	70.508	175.3568
197.500000	70.499	175.2685
200.000000	70.481	175.1309
203.000000	70.442	174.9117
206.000000	70.392	174.7744
209.000000	70.348	174.7492
212.000000	70.316	174.6542
214.000000	70.298	174.5012
218.000000	70.265	174.1412
220.000000	70.246	173.9641
224.000000	70.190	173.6672
227.000000	70.139	173.5645
230.000000	70.086	173.3681
233.000000	70.011	173.0692
236.000000	69.933	172.9425
240.000000	69.835	172.8666
243.000000	69.740	172.6983
247.000000	69.589	172.4340
250.000000	69.439	172.3989
254.000000	69.224	172.7531
258.000000	69.049	173.6145
262.000000	68.902	175.2590
265.000000	68.842	176.7520
269.000000	68.879	178.6152
272.000000	68.992	179.6857
276.000000	69.193	-179.4054
280.000000	69.376	-178.9890
285.000000	69.532	-179.0082
290.000000	69.630	-179.3922
295.000000	69.696	179.9262
300.000000	69.742	179.5287
304.000000	69.778	179.3376
307.000000	69.788	179.1722
311.000000	69.781	178.9081
315.000000	69.771	178.6490
320.000000	69.765	178.4002
325.000000	69.751	178.1179
330.000000	69.720	177.9576
335.000000	69.679	177.9472
340.000000	69.631	177.8633
345.000000	69.592	177.6957
350.000000	69.572	177.6028
355.000000	69.546	177.6154
360.000000	69.507	177.6229
365.000000	69.454	177.6315
370.000000	69.411	177.6410
375.000000	69.377	177.6374
382.000000	69.321	177.7008
387.000000	69.269	177.8210
395.000000	69.193	177.8884
400.000000	69.145	177.9554
406.000000	69.075	178.2357
412.000000	69.011	178.5372
418.000000	68.966	178.6979
425.000000	68.917	179.0402
431.000000	68.873	179.3080
437.000000	68.831	179.4112
444.000000	68.788	179.4744
450.000000	68.757	179.6173
455.000000	68.726	179.8241
462.000000	68.675	-179.8904
468.000000	68.637	-179.6405
475.000000	68.607	-179.2033
482.000000	68.575	-178.8708
487.000000	68.551	-178.8001
494.000000	68.510	-178.6123
500.000000	68.466	-178.2848
508.000000	68.422	-178.0244
515.000000	68.387	-177.8672
522.000000	68.353	-177.6133
530.000000	68.304	-177.1711
538.000000	68.251	-176.7721
545.000000	68.208	-176.4918
552.000000	68.154	-176.1568
560.000000	68.111	-175.5722
570.000000	68.085	-174.9236
580.000000	68.033	-174.4775
590.000000	67.974	-173.9931
600.000000	67.929	-173.4444
608.000000	67.895	-172.8381
615.000000	67.875	-172.4726
622.000000	67.862	-172.1932
630.000000	67.825	-171.8263
640.000000	67.760	-171.3592
650.000000	67.713	-170.8194
660.000000	67.696	-170.0382
670.000000	67.684	-169.2472
680.000000	67.647	-168.5996
690.000000	67.606	-167.9787
700.000000	67.566	-167.3678
710.000000	67.538	-166.6627
720.000000	67.517	-165.9001
730.000000	67.487	-165.2010
740.000000	67.449	-164.5340
750.000000	67.426	-163.8417
762.000000	67.414	-162.8768
775.000000	67.399	-161.8857
788.000000	67.384	-160.9388
800.000000	67.376	-160.0199
812.000000	67.377	-159.1883
825.000000	67.390	-158.2224
838.000000	67.395	-157.1752
850.000000	67.400	-156.2843
862.000000	67.418	-155.3915
875.000000	67.454	-154.3651
885.000000	67.486	-153.6300
900.000000	67.534	-152.5581
912.000000	67.567	-151.6173
925.000000	67.602	-150.6745
938.000000	67.651	-149.7915
950.000000	67.712	-148.9405
962.000000	67.774	-148.1185
975.000000	67.842	-147.2620
988.000000	67.901	-146.4395
1000.000000	67.960	-145.7053
1015.000000	68.075	-144.8501
1030.000000	68.181	-144.1387
1044.000000	68.274	-143.4435
1060.000000	68.383	-142.6587
1075.000000	68.482	-141.9619
1090.000000	68.580	-141.2498
1106.000000	68.696	-140.6071
1120.000000	68.797	-140.1161
1138.000000	68.920	-139.4923
1150.000000	69.007	-139.0918
1172.000000	69.180	-138.4204
1180.000000	69.242	-138.2047
1206.000000	69.432	-137.5384
1220.000000	69.529	-137.1718
1241.000000	69.665	-136.6626
1250.000000	69.719	-136.4597
1265.000000	69.804	-136.1515
1280.000000	69.886	-135.8444
1315.000000	70.095	-135.0684
1320.000000	70.124	-134.9763
1340.000000	70.231	-134.5873
1360.000000	70.337	-134.1296
1380.000000	70.448	-133.6712
1400.000000	70.559	-133.1998
1430.000000	70.725	-132.5624
1450.000000	70.844	-132.0836
1475.000000	70.987	-131.4837
1500.000000	71.132	-130.8896
1525.000000	71.283	-130.2583
1550.000000	71.447	-129.6515
1575.000000	71.620	-129.0297
1600.000000	71.789	-128.5037
1625.000000	71.960	-128.0244
1650.000000	72.137	-127.4438
1675.000000	72.330	-126.8957
1700.000000	72.529	-126.4411
1725.000000	72.730	-126.0795
1750.000000	72.933	-125.7409
1775.000000	73.140	-125.4754
1800.000000	73.351	-125.2708
1825.000000	73.562	-125.1635
1850.000000	73.772	-125.1548
1875.000000	73.978	-125.1932
1900.000000	74.181	-125.2922
1925.000000	74.378	-125.4421
1950.000000	74.566	-125.6424
1975.000000	74.746	-125.8903
2000.000000	74.922	-126.1705
2030.000000	75.130	-126.5646
2060.000000	75.327	-126.9821
2090.000000	75.514	-127.4080
2120.000000	75.698	-127.8582
2140.000000	75.821	-128.1645
2180.000000	76.054	-128.8087
2200.000000	76.166	-129.1390
2240.000000	76.383	-129.8110
2270.000000	76.544	-130.3332
2300.000000	76.702	-130.8756
2330.000000	76.858	-131.4309
2360.000000	77.010	-132.0022
2400.000000	77.212	-132.8011
2430.000000	77.361	-133.4495
2470.000000	77.554	-134.3265
2500.000000	77.695	-135.0037
2540.000000	77.880	-135.9670
2580.000000	78.059	-136.9936
2620.000000	78.233	-138.0831
2650.000000	78.358	-138.9312
2690.000000	78.516	-140.0995
2720.000000	78.627	-141.0139
2760.000000	78.766	-142.2740
2800.000000	78.895	-143.5759
2850.000000	79.036	-145.2496
2900.000000	79.157	-146.9761
2950.000000	79.258	-148.7322
3000.000000	79.337	-150.4941
3040.000000	79.384	-151.9066
3070.000000	79.410	-152.9560
3110.000000	79.435	-154.3269
3150.000000	79.446	-155.6650
3200.000000	79.440	-157.2849
3250.000000	79.417	-158.8165
3300.000000	79.382	-160.2401
3350.000000	79.342	-161.5549
3400.000000	79.301	-162.8028
3450.000000	79.260	-164.0158
3500.000000	79.214	-165.1946
3550.000000	79.159	-166.3174
3600.000000	79.097	-167.3463
3650.000000	79.031	-168.2811
3700.000000	78.960	-169.1360
3750.000000	78.887	-169.9104
3820.000000	78.782	-170.8627
3870.000000	78.704	-171.4609
3950.000000	78.579	-172.2729
4000.000000	78.502	-172.7145
4060.000000	78.413	-173.1735
4120.000000	78.330	-173.5593
4180.000000	78.252	-173.8642
4250.000000	78.172	-174.1429
4310.000000	78.109	-174.3139
4370.000000	78.046	-174.4346
4440.000000	77.979	-174.5464
4500.000000	77.935	-174.6320
4550.000000	77.907	-174.7045
4620.000000	77.879	-174.8283
4680.000000	77.863	-174.9554
4750.000000	77.855	-175.1465
4820.000000	77.855	-175.3980
4870.000000	77.857	-175.6149
4940.000000	77.860	-175.9421
5000.000000	77.866	-176.2398
5080.000000	77.877	-176.6918
5150.000000	77.891	-177.1545
5220.000000	77.908	-177.6813
5300.000000	77.928	-178.3405
5380.000000	77.947	-179.0678
5450.000000	77.963	-179.7574
5520.000000	77.977	179.5023
5600.000000	77.991	178.5833
5700.000000	78.000	177.3258
5800.000000	77.993	175.9865
5900.000000	77.973	174.5725
6000.000000	77.940	173.0959
6080.000000	77.901	171.8870
6150.000000	77.858	170.8109
6220.000000	77.808	169.7233
6300.000000	77.742	168.4827
6400.000000	77.646	166.9362
6500.000000	77.533	165.4113
6600.000000	77.402	163.9229
6700.000000	77.249	162.5066
6800.000000	77.084	161.2234
6900.000000	76.929	160.1181
7000.000000	76.796	159.2150
7100.000000	76.688	158.5265
7200.000000	76.613	157.9937
7300.000000	76.583	157.5021
7400.000000	76.598	156.9189
7500.000000	76.653	156.1366
7620.000000	76.776	154.8246
7750.000000	76.950	152.8002
7880.000000	77.075	150.0112
8000.000000	77.129	146.6517
8120.000000	77.106	142.5467
8250.000000	76.946	137.3483
8380.000000	76.599	131.7420
8500.000000	76.089	126.6620
8620.000000	75.401	122.0901
8750.000000	74.496	118.0565
8850.000000	73.723	115.7249
9000.000000	72.507	113.5022
9120.000000	71.530	112.6970
9250.000000	70.504	112.6380
9380.000000	69.523	113.2653
9500.000000	68.660	114.3216
9620.000000	67.839	115.7474
9750.000000	66.997	117.5887
9880.000000	66.204	119.7219
10000.000000	65.513	121.9931
10150.000000	64.712	125.1377
10300.000000	63.971	128.5324
10440.000000	63.326	131.8751
10600.000000	62.651	135.9316
10750.000000	62.082	140.0229
10900.000000	61.564	144.2562
11060.000000	61.058	148.8409
11200.000000	60.662	152.8398
11380.000000	60.230	158.0359
11500.000000	59.981	161.5959
11720.000000	59.615	168.3246
11800.000000	59.515	170.8201
12060.000000	59.272	178.8273
12200.000000	59.182	-176.9299
12410.000000	59.095	-170.6126
12500.000000	59.078	-167.9090
12650.000000	59.095	-163.3844
12800.000000	59.165	-158.9010
13150.000000	59.559	-148.4819
13200.000000	59.642	-147.0039
13400.000000	60.046	-141.1479
13600.000000	60.612	-135.4606
13800.000000	61.390	-130.0210
14000.000000	62.411	-125.0913
14300.000000	64.487	-119.2442
14500.000000	66.398	-117.1035
14750.000000	69.449	-119.3508
15000.000000	72.435	-133.4802
15250.000000	73.694	-162.6150
15500.000000	72.401	168.5294
15750.000000	69.515	154.3629
16000.000000	66.569	151.4782
16250.000000	64.289	153.6699
16500.000000	62.654	157.9570
16750.000000	61.488	163.0818
17000.000000	60.683	168.5742
17250.000000	60.157	174.1418
17500.000000	59.849	179.8070
17750.000000	59.801	-174.5396
18000.000000	60.040	-169.3146
18250.000000	60.516	-164.9441
18500.000000	61.222	-161.9601
18750.000000	62.122	-160.9318
19000.000000	63.089	-162.7400
19250.000000	63.886	-168.1293
19500.000000	64.216	-176.7685
19750.000000	63.958	173.7620
20000.000000	63.442	167.4897
